File: 1.5UC-SRO-BTO-SRO-NSTO(3rd_sample_new)-1MKOH_GraphiteCE_SCE_REF_CV_upvsdown_09_CV_C01 - Copy.txt
EC-Lab ASCII FILE
Nb header lines : 59

Cyclic Voltammetry

Run on channel : 1 (SN 2826)
User :
Electrode connection : standard
Potential control : Ewe
Ewe ctrl range : min = -10.00 V, max = 10.00 V
Ewe,I filtering : 50 kHz
Safety Limits :
	Do not start on E overload
Channel : Grounded
Acquisition started on : 01/01/2023 19:45:55.008
Loaded Setting File :  NONE
Saved on :
	File : 1.5UC-SRO-BTO-SRO-NSTO(3rd_sample_new)-1MKOH_GraphiteCE_SCE_REF_CV_upvsdown_09_CV_C01.mpr
	Directory : C:\Data\Pedram\01012023\
	Host : 192.109.209.127
Device : VSP-300 (SN 0229)
Address : 192.109.209.128
EC-LAB for windows v11.42 (software)
Internet server v11.40 (firmware)
Command interpretor v11.42 (firmware)
Electrode material :
Initial state :
Electrolyte :
Comments :
Cable : standard
Electrode surface area : 0.001 cm²
Characteristic mass : 0.001 g
Equivalent Weight : 0.000 g/eq.
Density : 0.000 g/cm3
Volume (V) : 0.001 cm³
Cycle Definition : Charge/Discharge alternance
Ei (V)              -0.800
vs.                 Ref
dE/dt               50.000
dE/dt unit          mV/s
E1 (V)              -0.600
vs.                 Ref
Step percent        50
N                   10
E range min (V)     -10.000
E range max (V)     10.000
I Range             Auto
I Range min         Unset
I Range max         Unset
I Range init        Unset
Bandwidth           8
E2 (V)              -1.370
vs.                 Ref
nc cycles           10
Reverse Scan        0
Ef (V)              0.000
vs.                 Eoc

mode	ox/red	error	control changes	counter inc.	time/s	control/V	Ewe/V	<I>/mA	cycle number	(Q-Qo)/C	I Range	Rcmp/Ohm	step time/s	Pwe/W	Rwe/Ohm
2	1	0	0	0	328.614	-0.795659	-0.795611	0.0216305	1	0.0000000E+000	40	23.8988	0.000000000000000E+000	-1.72094e-05	36781.9
2	1	0	0	0	329.291	-0.761829	-0.76165	0.011923	1	8.72818e-06	41	23.8988	0.6392	-9.08118e-06	63880.6
2	1	0	0	0	329.971	-0.727829	-0.727652	0.0113898	1	1.68155e-05	41	23.8988	1.3192	-8.28782e-06	63886.1
2	1	0	0	0	330.651	-0.693829	-0.693667	0.0108377	1	2.45239e-05	41	23.8988	1.9992	-7.51779e-06	64004.8
2	1	0	0	0	331.331	-0.659829	-0.659657	0.0103261	1	3.18669e-05	41	23.8988	2.6792	-6.81169e-06	63882.5
2	1	0	0	0	332.011	-0.625829	-0.625637	0.00984762	1	3.88751e-05	41	23.8988	3.3592	-6.16104e-06	63531.8
2	1	0	1	0	332.635	-0.605652	-0.605475	0.00841594	1	4.49053e-05	41	23.8988	3.983	-5.09564e-06	71943.8
2	1	0	1	0	333.315	-0.639652	-0.639465	0.00616435	1	4.96096e-05	41	23.8988	4.663	-3.94189e-06	103736
2	1	0	1	0	333.995	-0.673652	-0.673492	0.00474825	1	5.31321e-05	41	23.8988	5.343	-3.19791e-06	141840
2	1	0	1	0	334.702	-0.709012	-0.708871	0.00365057	1	5.59095e-05	42	23.8988	6.0502	-2.58778e-06	194181
2	1	0	1	0	335.382	-0.743012	-0.742883	0.00278718	1	5.79232e-05	42	23.8988	6.7302	-2.07055e-06	266536
2	1	0	1	0	336.062	-0.777012	-0.776886	0.00208551	1	5.94037e-05	42	23.8988	7.4102	-1.6202e-06	372516
2	1	0	1	0	336.742	-0.811012	-0.810872	0.00149033	1	6.04321e-05	42	23.8988	8.0902	-1.20846e-06	544090
2	1	0	1	0	337.422	-0.845012	-0.844885	0.000957369	1	6.10604e-05	42	23.8988	8.7702	-8.08867e-07	882507
2	1	0	1	0	338.102	-0.879012	-0.878894	0.000465014	1	6.1324e-05	42	23.8988	9.4502	-4.08698e-07	1.89004e+06
2	0	0	1	0	338.782	-0.913012	-0.912896	1.20361e-05	1	6.12447e-05	42	23.8988	0.476	-1.09877e-08	7.58465e+07
2	0	0	1	0	339.462	-0.947012	-0.946888	-0.000426397	1	6.08339e-05	42	23.8988	1.156	4.0375e-07	2.22067e+06
2	0	0	1	0	340.169	-0.982372	-0.982202	-0.000990279	1	6.00715e-05	41	23.8988	1.8632	9.72654e-07	991843
2	0	0	1	0	340.849	-1.01637	-1.01621	-0.00143289	1	5.90086e-05	41	23.8988	2.5432	1.45612e-06	709205
2	0	0	1	0	341.529	-1.05037	-1.05024	-0.00187611	1	5.76333e-05	41	23.8988	3.2232	1.97036e-06	559798
2	0	0	1	0	342.209	-1.08437	-1.08423	-0.00236478	1	5.59313e-05	41	23.8988	3.9032	2.56396e-06	458491
2	0	0	1	0	342.889	-1.11837	-1.1182	-0.00292712	1	5.3867e-05	41	23.8988	4.5832	3.2731e-06	382015
2	0	0	1	0	343.569	-1.15237	-1.15221	-0.00349957	1	5.14241e-05	41	23.8988	5.2632	4.03223e-06	329243
2	0	0	1	0	344.249	-1.18637	-1.18622	-0.0041439	1	4.85764e-05	41	23.8988	5.9432	4.91557e-06	286257
2	0	0	1	0	344.929	-1.22037	-1.22021	-0.00495572	1	4.52194e-05	41	23.8988	6.6232	6.04701e-06	246223
2	0	0	1	0	345.609	-1.25437	-1.25421	-0.00602287	1	4.11964e-05	41	23.8988	7.3032	7.55398e-06	208242
2	0	0	1	0	346.289	-1.28837	-1.2882	-0.00728833	1	3.63582e-05	41	23.8988	7.9832	9.3888e-06	176748
2	0	0	1	0	346.969	-1.32237	-1.3222	-0.00883626	1	3.05414e-05	41	23.8988	8.6632	1.16833e-05	149634
2	0	0	1	0	347.649	-1.35637	-1.3562	-0.0107579	1	2.35209e-05	41	23.8988	9.3432	1.45899e-05	126066
2	0	0	0	1	348.167	-1.35777	-1.35761	-0.00733396	1	1.8229e-05	41	23.8988	9.8608	9.95666e-06	185113
2	0	0	0	1	348.847	-1.32377	-1.32361	-0.00281656	1	1.53657e-05	41	23.8988	10.5408	3.72801e-06	469937
2	0	0	0	1	349.527	-1.28977	-1.28957	-0.000465671	1	1.46716e-05	41	23.8988	11.2208	6.00517e-07	2.76927e+06
2	1	0	0	1	350.207	-1.25577	-1.25559	0.00103457	1	1.52296e-05	41	23.8988	0.612	-1.299e-06	1.21364e+06
2	1	0	0	1	350.887	-1.22177	-1.2216	0.00205978	1	1.65964e-05	41	23.8988	1.292	-2.51622e-06	593072
2	1	0	0	1	351.567	-1.18777	-1.1876	0.00270118	1	1.85087e-05	41	23.8988	1.972	-3.20793e-06	439662
2	1	0	0	1	352.247	-1.15377	-1.1536	0.00315044	1	2.07828e-05	41	23.8988	2.652	-3.63436e-06	366172
2	1	0	0	1	352.927	-1.11977	-1.11958	0.0034427	1	2.32991e-05	41	23.8988	3.332	-3.85438e-06	325205
2	1	0	0	1	353.607	-1.08577	-1.0856	0.00363944	1	2.59743e-05	41	23.8988	4.012	-3.95096e-06	298287
2	1	0	0	1	354.287	-1.05177	-1.0516	0.00378454	1	2.87578e-05	41	23.8988	4.692	-3.97983e-06	277867
2	1	0	0	1	354.967	-1.01777	-1.01757	0.00388564	1	3.16123e-05	41	23.8988	5.372	-3.95392e-06	261880
2	1	0	0	1	355.647	-0.983769	-0.98357	0.00395119	1	3.45115e-05	41	23.8988	6.052	-3.88627e-06	248930
2	1	0	0	1	356.327	-0.949769	-0.949566	0.00399805	1	3.74363e-05	41	23.8988	6.732	-3.79641e-06	237508
2	1	0	0	1	357.007	-0.915769	-0.915584	0.00401274	1	4.03694e-05	41	23.8988	7.412	-3.674e-06	228169
2	1	0	0	1	357.687	-0.881769	-0.88157	0.00400881	1	4.32997e-05	41	23.8988	8.092	-3.53405e-06	219908
2	1	0	0	1	358.367	-0.847769	-0.847607	0.0039957	1	4.62167e-05	41	23.8988	8.772	-3.38678e-06	212130
2	1	0	0	1	359.074	-0.812409	-0.812173	0.00396839	1	4.92351e-05	42	23.8988	9.4792	-3.22302e-06	204660
2	1	0	0	1	359.638	-0.784189	-0.783959	0.00396448	2	5.16393e-05	42	23.8988	10.0436	-3.10799e-06	197746
2	1	0	0	1	360.318	-0.750189	-0.749968	0.00396534	2	5.45228e-05	42	23.8988	10.7236	-2.97387e-06	189131
2	1	0	0	1	360.998	-0.716189	-0.715958	0.00397576	2	5.73992e-05	42	23.8988	11.4036	-2.84647e-06	180081
2	1	0	0	1	361.678	-0.682189	-0.681962	0.00398055	2	6.0275e-05	42	23.8988	12.0836	-2.71458e-06	171324
2	1	0	0	1	362.358	-0.648189	-0.647973	0.00400504	2	6.3156e-05	42	23.8988	12.7636	-2.59516e-06	161789
2	1	0	0	1	363.038	-0.614189	-0.613948	0.00402955	2	6.60481e-05	42	23.8988	13.4436	-2.47393e-06	152361
2	1	0	1	1	363.633	-0.615732	-0.615556	0.00260354	2	6.8141e-05	42	23.8988	14.0378	-1.60263e-06	236430
2	1	0	1	1	364.313	-0.649732	-0.649578	0.00169223	2	6.94225e-05	42	23.8988	14.7178	-1.09924e-06	383858
2	1	0	1	1	364.993	-0.683732	-0.683605	0.00110996	2	7.02109e-05	42	23.8988	15.3978	-7.58771e-07	615885
2	1	0	1	1	365.673	-0.717732	-0.71759	0.000668798	2	7.06452e-05	42	23.8988	16.0778	-4.79923e-07	1.07295e+06
2	1	0	1	1	366.353	-0.751732	-0.751595	0.000284488	2	7.07915e-05	42	23.8988	16.7578	-2.1382e-07	2.64192e+06
2	1	0	1	1	367.033	-0.785732	-0.785595	-3.63776e-05	2	7.06897e-05	42	23.8988	0.544	2.85781e-08	2.15956e+07
2	0	0	1	1	367.713	-0.819732	-0.819613	-0.000339602	2	7.03618e-05	42	23.8988	1.224	2.78342e-07	2.41345e+06
2	0	0	1	1	368.393	-0.853732	-0.853634	-0.000634464	2	6.98192e-05	42	23.8988	1.904	5.416e-07	1.34544e+06
2	0	0	1	1	369.073	-0.887732	-0.887608	-0.000923636	2	6.90651e-05	42	23.8988	2.584	8.19827e-07	960993
2	0	0	1	1	369.753	-0.921732	-0.921601	-0.00121233	2	6.80958e-05	42	23.8988	3.264	1.11729e-06	760190
2	0	0	1	1	370.433	-0.955732	-0.955601	-0.00149297	2	6.6907e-05	42	23.8988	3.944	1.42668e-06	640068
2	0	0	1	1	371.113	-0.989732	-0.9896	-0.00178079	2	6.54947e-05	42	23.8988	4.624	1.76227e-06	555709
2	0	0	1	1	371.82	-1.02509	-1.02492	-0.00227214	2	6.37785e-05	41	23.8988	5.3312	2.32877e-06	451084
2	0	0	1	1	372.5	-1.05909	-1.05892	-0.00262721	2	6.18833e-05	41	23.8988	6.0112	2.782e-06	403058
2	0	0	1	1	373.18	-1.09309	-1.09295	-0.0030684	2	5.9718e-05	41	23.8988	6.6912	3.35361e-06	356196
2	0	0	1	1	373.86	-1.12709	-1.12691	-0.00351724	2	5.72328e-05	41	23.8988	7.3712	3.96363e-06	320397
2	0	0	1	1	374.54	-1.16109	-1.16092	-0.00403142	2	5.43999e-05	41	23.8988	8.0512	4.68016e-06	287968
2	0	0	1	1	375.22	-1.19509	-1.19493	-0.00464081	2	5.11824e-05	41	23.8988	8.7312	5.54546e-06	257484
2	0	0	1	1	375.9	-1.22909	-1.22891	-0.00551048	2	4.74472e-05	41	23.8988	9.4112	6.7719e-06	223014
2	0	0	1	1	376.58	-1.26309	-1.26292	-0.00665651	2	4.30108e-05	41	23.8988	10.0912	8.40664e-06	189727
2	0	0	1	1	377.26	-1.29709	-1.29691	-0.00806093	2	3.76904e-05	41	23.8988	10.7712	1.04543e-05	160888
2	0	0	1	1	377.94	-1.33109	-1.33093	-0.00977822	2	3.12879e-05	41	23.8988	11.4512	1.30141e-05	136111
2	0	0	1	1	378.62	-1.36509	-1.36494	-0.0119824	2	2.35475e-05	41	23.8988	12.1312	1.63553e-05	113912
2	0	0	1	0	379.231	-1.34423	-1.34406	-0.00577516	2	1.83901e-05	41	23.8988	12.7428	7.76216e-06	232731
2	0	0	1	0	379.911	-1.31023	-1.31002	-0.00240992	2	1.60716e-05	41	23.8988	13.4228	3.15704e-06	543596
2	0	0	1	0	380.591	-1.27623	-1.27605	-0.00046995	2	1.54683e-05	41	23.8988	14.1028	5.99678e-07	2.71528e+06
2	1	0	1	0	381.271	-1.24223	-1.24207	0.000818531	2	1.59331e-05	41	23.8988	0.612	-1.01667e-06	1.51744e+06
2	1	0	1	0	381.951	-1.20823	-1.20805	0.00167605	2	1.71087e-05	41	23.8988	1.292	-2.02476e-06	720775
2	1	0	1	0	382.631	-1.17423	-1.17408	0.00226049	2	1.87574e-05	41	23.8988	1.972	-2.654e-06	519391
2	1	0	1	0	383.311	-1.14023	-1.14004	0.00263836	2	2.07185e-05	41	23.8988	2.652	-3.00784e-06	432103
2	1	0	1	0	383.991	-1.10623	-1.10609	0.0028844	2	2.28801e-05	41	23.8988	3.332	-3.19041e-06	383475
2	1	0	1	0	384.671	-1.07223	-1.07209	0.0030671	2	2.51742e-05	41	23.8988	4.012	-3.28819e-06	349543
2	1	0	1	0	385.351	-1.03823	-1.03807	0.00319906	2	2.75507e-05	41	23.8988	4.692	-3.32086e-06	324493
2	1	0	1	0	386.031	-1.00423	-1.00404	0.00329518	2	2.9978e-05	41	23.8988	5.372	-3.30849e-06	304699
2	1	0	1	0	386.711	-0.970229	-0.970024	0.00334488	2	3.24342e-05	41	23.8988	6.052	-3.24462e-06	290002
2	1	0	1	0	387.391	-0.936229	-0.93605	0.00336126	2	3.48972e-05	41	23.8988	6.732	-3.14631e-06	278482
2	1	0	1	0	388.071	-0.902229	-0.902085	0.00333927	2	3.73563e-05	41	23.8988	7.412	-3.01231e-06	270144
2	1	0	1	0	388.785	-0.866529	-0.866298	0.00325645	2	3.99193e-05	42	23.8988	8.126	-2.82106e-06	266026
2	1	0	1	0	389.465	-0.832529	-0.832309	0.00324675	2	4.23404e-05	42	23.8988	8.806	-2.7023e-06	256351
2	1	0	1	0	390.115	-0.800059	-0.799839	0.00316116	2	4.46265e-05	42	23.8988	9.4554	-2.52842e-06	253020
2	1	0	1	0	390.703	-0.770649	-0.770404	0.00322172	3	4.66739e-05	42	23.8988	10.0436	-2.48202e-06	239128
2	1	0	1	0	391.383	-0.736649	-0.736432	0.00320732	3	4.90192e-05	42	23.8988	10.7236	-2.36197e-06	229610
2	1	0	1	0	392.063	-0.702649	-0.702422	0.00317831	3	5.13463e-05	42	23.8988	11.4036	-2.23252e-06	221005
2	1	0	1	0	392.743	-0.668649	-0.668417	0.00316491	3	5.36585e-05	42	23.8988	12.0836	-2.11548e-06	211196
2	1	0	1	0	393.423	-0.634649	-0.634396	0.00316774	3	5.5964e-05	42	23.8988	12.7636	-2.0096e-06	200268
2	1	0	1	0	394.089	-0.601329	-0.601077	0.00318395	3	5.8224e-05	42	23.8988	13.43	-1.9138e-06	188784
2	1	0	1	0	394.697	-0.629302	-0.629128	0.00145556	3	5.93189e-05	42	23.8988	14.0372	-9.15734e-07	432224
2	1	0	1	0	395.377	-0.663302	-0.663171	0.000825893	3	5.9922e-05	42	23.8988	14.7172	-5.47708e-07	802974
2	1	0	1	0	396.057	-0.697302	-0.697169	0.000380969	3	6.01744e-05	42	23.8988	15.3972	-2.656e-07	1.82999e+06
2	1	0	1	0	396.737	-0.731302	-0.731188	3.60066e-05	3	6.01613e-05	42	23.8988	0.34	-2.63275e-08	2.03071e+07
2	0	0	1	0	397.417	-0.765302	-0.765186	-0.000249205	3	5.99235e-05	42	23.8988	1.02	1.90688e-07	3.07051e+06
2	0	0	1	0	398.097	-0.799302	-0.799164	-0.000509827	3	5.94879e-05	42	23.8988	1.7	4.07436e-07	1.56752e+06
2	0	0	1	0	398.777	-0.833302	-0.833179	-0.000757989	3	5.88639e-05	42	23.8988	2.38	6.3154e-07	1.0992e+06
2	0	0	1	0	399.457	-0.867302	-0.867181	-0.0010168	3	5.80554e-05	42	23.8988	3.06	8.81751e-07	852851
2	0	0	1	0	400.137	-0.901302	-0.901208	-0.00126807	3	5.70592e-05	42	23.8988	3.74	1.1428e-06	710692
2	0	0	1	0	400.817	-0.935302	-0.935183	-0.00151809	3	5.58681e-05	42	23.8988	4.42	1.41969e-06	616026
2	0	0	1	0	401.497	-0.969302	-0.969135	-0.00176271	3	5.44765e-05	42	23.8988	5.1	1.7083e-06	549800
2	0	0	1	0	402.204	-1.00466	-1.00448	-0.00218041	3	5.28051e-05	41	23.8988	5.8072	2.19019e-06	460685
2	0	0	1	0	402.884	-1.03866	-1.0385	-0.00249291	3	5.09786e-05	41	23.8988	6.4872	2.58889e-06	416582
2	0	0	1	0	403.564	-1.07266	-1.0725	-0.00283452	3	4.89184e-05	41	23.8988	7.1672	3.04001e-06	378370
2	0	0	1	0	404.244	-1.10666	-1.1065	-0.00325958	3	4.65813e-05	41	23.8988	7.8472	3.60673e-06	339461
2	0	0	1	0	404.924	-1.14066	-1.14047	-0.00378526	3	4.39129e-05	41	23.8988	8.5272	4.31698e-06	301293
2	0	0	1	0	405.604	-1.17466	-1.1745	-0.00434468	3	4.08877e-05	41	23.8988	9.2072	5.10281e-06	270330
2	0	0	1	0	406.284	-1.20866	-1.20849	-0.00507184	3	3.74387e-05	41	23.8988	9.8872	6.12929e-06	238275
2	0	0	1	0	406.964	-1.24266	-1.2425	-0.00607042	3	3.33924e-05	41	23.8988	10.5672	7.5425e-06	204681
2	0	0	1	0	407.644	-1.27666	-1.27649	-0.0073419	3	2.85495e-05	41	23.8988	11.2472	9.37187e-06	173864
2	0	0	1	0	408.324	-1.31066	-1.31046	-0.00891745	3	2.27098e-05	41	23.8988	11.9272	1.16859e-05	146954
2	0	0	1	0	409.004	-1.34466	-1.34449	-0.0108458	3	1.56517e-05	41	23.8988	12.6072	1.45821e-05	123964
2	0	0	0	1	409.616	-1.36462	-1.36444	-0.0101598	3	8.33314e-06	41	23.8988	13.219	1.38624e-05	134299
2	0	0	0	1	410.296	-1.33062	-1.33044	-0.00452714	3	4.05063e-06	41	23.8988	13.899	6.02309e-06	293881
2	0	0	0	1	410.976	-1.29662	-1.29643	-0.00182347	3	2.30591e-06	41	23.8988	14.579	2.36401e-06	710971
2	0	0	0	1	411.656	-1.26262	-1.26244	-0.000149996	3	1.98462e-06	41	23.8988	0.068	1.89361e-07	8.41644e+06
2	1	0	0	1	412.336	-1.22862	-1.22844	0.000956712	3	2.58948e-06	41	23.8988	0.748	-1.17526e-06	1.28402e+06
2	1	0	0	1	413.016	-1.19462	-1.19446	0.00171292	3	3.81587e-06	41	23.8988	1.428	-2.04602e-06	697321
2	1	0	0	1	413.696	-1.16062	-1.16046	0.00221873	3	5.45472e-06	41	23.8988	2.108	-2.57474e-06	523027
2	1	0	0	1	414.376	-1.12662	-1.12645	0.00254029	3	7.36006e-06	41	23.8988	2.788	-2.86151e-06	443435
2	1	0	0	1	415.056	-1.09262	-1.09246	0.00274681	3	9.43447e-06	41	23.8988	3.468	-3.00078e-06	397719
2	1	0	0	1	415.736	-1.05862	-1.05845	0.00289309	3	1.16182e-05	41	23.8988	4.148	-3.06218e-06	365854
2	1	0	0	1	416.416	-1.02462	-1.02445	0.00298551	3	1.38686e-05	41	23.8988	4.828	-3.05852e-06	343142
2	1	0	0	1	417.096	-0.990619	-0.990444	0.00303134	3	1.6157e-05	41	23.8988	5.508	-3.00237e-06	326735
2	1	0	0	1	417.776	-0.956619	-0.956437	0.0030598	3	1.84615e-05	41	23.8988	6.188	-2.9265e-06	312582
2	1	0	0	1	418.483	-0.921259	-0.921022	0.00304124	3	2.08632e-05	42	23.8988	6.8952	-2.80105e-06	302844
2	1	0	0	1	419.163	-0.887259	-0.886999	0.00305093	3	2.31597e-05	42	23.8988	7.5752	-2.70617e-06	290731
2	1	0	0	1	419.843	-0.853259	-0.853009	0.00303318	3	2.54283e-05	42	23.8988	8.2552	-2.58733e-06	281226
2	1	0	0	1	420.523	-0.819259	-0.819022	0.0029862	3	2.76647e-05	42	23.8988	8.9352	-2.44577e-06	274269
2	1	0	0	1	421.087	-0.791039	-0.790797	0.0029298	4	2.94926e-05	42	23.8988	9.4996	-2.31687e-06	269916
2	1	0	0	1	421.767	-0.757039	-0.756811	0.00289828	4	3.1667e-05	42	23.8988	10.1796	-2.19345e-06	261124
2	1	0	0	1	422.447	-0.723039	-0.722804	0.00288545	4	3.38119e-05	42	23.8988	10.8596	-2.08561e-06	250500
2	1	0	0	1	423.127	-0.689039	-0.688824	0.00286524	4	3.59305e-05	42	23.8988	11.5396	-1.97365e-06	240407
2	1	0	0	1	423.807	-0.655039	-0.654798	0.00285666	4	3.80297e-05	42	23.8988	12.2196	-1.87054e-06	229218
2	1	0	0	1	424.487	-0.621039	-0.620817	0.00285669	4	4.01156e-05	42	23.8988	12.8996	-1.77348e-06	217321
2	1	0	1	1	425.081	-0.608892	-0.608738	0.00181209	4	4.17322e-05	42	23.8988	13.493	-1.10309e-06	335931
2	1	0	1	1	425.761	-0.642892	-0.642746	0.00090958	4	4.24538e-05	42	23.8988	14.173	-5.84629e-07	706641
2	1	0	1	1	426.441	-0.676892	-0.676756	0.000433663	4	4.27416e-05	42	23.8988	14.853	-2.93484e-07	1.56056e+06
2	1	0	1	1	427.121	-0.710892	-0.710743	8.33052e-05	4	4.27452e-05	42	23.8988	0.272	-5.92086e-08	8.5318e+06
2	0	0	1	1	427.801	-0.744892	-0.74476	-0.000215276	4	4.25232e-05	42	23.8988	0.952	1.60329e-07	3.45957e+06
2	0	0	1	1	428.481	-0.778892	-0.77875	-0.000488153	4	4.21045e-05	42	23.8988	1.632	3.80149e-07	1.5953e+06
2	0	0	1	1	429.161	-0.812892	-0.812776	-0.000747263	4	4.15071e-05	42	23.8988	2.312	6.07357e-07	1.08767e+06
2	0	0	1	1	429.841	-0.846892	-0.846764	-0.000990719	4	4.07358e-05	42	23.8988	2.992	8.38905e-07	854696
2	0	0	1	1	430.521	-0.880892	-0.880737	-0.00122253	4	3.97886e-05	42	23.8988	3.672	1.07673e-06	720422
2	0	0	1	1	431.201	-0.914892	-0.914771	-0.00145472	4	3.86609e-05	42	23.8988	4.352	1.33074e-06	628829
2	0	0	1	1	431.881	-0.948892	-0.948729	-0.00169166	4	3.73445e-05	42	23.8988	5.032	1.60492e-06	560828
2	0	0	1	1	432.561	-0.982892	-0.98273	-0.00192862	4	3.58335e-05	42	23.8988	5.712	1.89531e-06	509552
2	0	0	1	1	433.241	-1.01689	-1.01673	-0.00217263	4	3.41207e-05	42	23.8988	6.392	2.20897e-06	467972
2	0	0	1	1	433.921	-1.05089	-1.05075	-0.0024341	4	3.21938e-05	42	23.8988	7.072	2.55762e-06	431677
2	0	0	1	1	434.628	-1.08625	-1.08608	-0.00302543	4	2.99375e-05	41	23.8988	7.7792	3.28586e-06	358984
2	0	0	1	1	435.308	-1.12025	-1.12009	-0.00348571	4	2.74586e-05	41	23.8988	8.4592	3.90431e-06	321337
2	0	0	1	1	435.988	-1.15425	-1.15409	-0.00401635	4	2.46299e-05	41	23.8988	9.1392	4.63524e-06	287348
2	0	0	1	1	436.668	-1.18825	-1.18807	-0.00459184	4	2.14233e-05	41	23.8988	9.8192	5.45544e-06	258736
2	0	0	1	1	437.348	-1.22225	-1.22206	-0.00542788	4	1.77299e-05	41	23.8988	10.4992	6.6332e-06	225145
2	0	0	1	1	438.028	-1.25625	-1.25606	-0.00663427	4	1.33428e-05	41	23.8988	11.1792	8.33306e-06	189330
2	0	0	1	1	438.708	-1.29025	-1.29004	-0.00808814	4	8.0538e-06	41	23.8988	11.8592	1.0434e-05	159498
2	0	0	1	1	439.388	-1.32425	-1.32407	-0.00983155	4	1.6563e-06	41	23.8988	12.5392	1.30177e-05	134676
2	0	0	1	1	440.068	-1.35825	-1.35806	-0.0119563	4	-6.08858e-06	41	23.8988	13.2192	1.62374e-05	113585
2	0	0	1	0	440.68	-1.35101	-1.35082	-0.00741873	4	-1.24829e-05	41	23.8988	13.8312	1.00214e-05	182083
2	0	0	1	0	441.36	-1.31701	-1.3168	-0.00354428	4	-1.56888e-05	41	23.8988	14.5112	4.6671e-06	371527
2	0	0	1	0	442.04	-1.28301	-1.28282	-0.00124342	4	-1.69252e-05	41	23.8988	15.1912	1.59508e-06	1.03168e+06
2	1	0	1	0	442.72	-1.24901	-1.24883	0.000196443	4	-1.69501e-05	41	23.8988	0.272	-2.45323e-07	6.35718e+06
2	1	0	1	0	443.4	-1.21501	-1.21483	0.00118085	4	-1.61687e-05	41	23.8988	0.952	-1.43452e-06	1.02877e+06
2	1	0	1	0	444.08	-1.18101	-1.18082	0.00181558	4	-1.48458e-05	41	23.8988	1.632	-2.14387e-06	650378
2	1	0	1	0	444.76	-1.14701	-1.14682	0.00225229	4	-1.31678e-05	41	23.8988	2.312	-2.58297e-06	509181
2	1	0	1	0	445.44	-1.11301	-1.11283	0.00253724	4	-1.12627e-05	41	23.8988	2.992	-2.82351e-06	438597
2	1	0	1	0	446.12	-1.07901	-1.07882	0.00271019	4	-9.2138e-06	41	23.8988	3.672	-2.92381e-06	398062
2	1	0	1	0	446.8	-1.04501	-1.04482	0.00282444	4	-7.07344e-06	41	23.8988	4.352	-2.95104e-06	369922
2	1	0	1	0	447.48	-1.01101	-1.01082	0.00290654	4	-4.87975e-06	41	23.8988	5.032	-2.93799e-06	347774
2	1	0	1	0	448.187	-0.975649	-0.975387	0.00283717	4	-2.56372e-06	42	23.8988	5.7392	-2.76733e-06	343789
2	1	0	1	0	448.867	-0.941649	-0.941409	0.00288318	4	-3.30753e-07	42	23.8988	6.4192	-2.71426e-06	326517
2	1	0	1	0	449.547	-0.907649	-0.907412	0.00288699	4	1.89361e-06	42	23.8988	7.0992	-2.61969e-06	314310
2	1	0	1	0	450.227	-0.873649	-0.873397	0.00288076	4	4.09694e-06	42	23.8988	7.7792	-2.51604e-06	303183
2	1	0	1	0	450.907	-0.839649	-0.839406	0.00287066	4	6.26738e-06	42	23.8988	8.4592	-2.40965e-06	292409
2	1	0	1	0	451.587	-0.805649	-0.805394	0.0028426	4	8.40141e-06	42	23.8988	9.1392	-2.28941e-06	283330
2	1	0	1	0	452.151	-0.777429	-0.777171	0.00279175	5	1.01439e-05	42	23.8988	9.7036	-2.16967e-06	278381
2	1	0	1	0	452.831	-0.743429	-0.743199	0.00275795	5	1.22102e-05	42	23.8988	10.3836	-2.0497e-06	269475
2	1	0	1	0	453.511	-0.709429	-0.70919	0.00271197	5	1.42441e-05	42	23.8988	11.0636	-1.92331e-06	261503
2	1	0	1	0	454.191	-0.675429	-0.675187	0.00269228	5	1.62496e-05	42	23.8988	11.7436	-1.81779e-06	250786
2	1	0	1	0	454.871	-0.641429	-0.641191	0.00266807	5	1.82327e-05	42	23.8988	12.4236	-1.71074e-06	240320
2	1	0	1	0	455.551	-0.607429	-0.607194	0.00266224	5	2.02001e-05	42	23.8988	13.1036	-1.61649e-06	228076
2	1	0	0	0	456.145	-0.622492	-0.622293	0.00119613	5	2.125e-05	42	23.8988	13.697	-7.44346e-07	520254
2	1	0	0	0	456.825	-0.656492	-0.656316	0.000577091	5	2.16738e-05	42	23.8988	14.377	-3.78754e-07	1.13728e+06
2	1	0	0	0	457.505	-0.690492	-0.69035	0.000176265	5	2.17606e-05	42	23.8988	0.068	-1.21685e-07	3.91654e+06
2	1	0	0	0	458.185	-0.724492	-0.724347	-0.000132112	5	2.16039e-05	42	23.8988	0.748	9.56948e-08	5.48284e+06
2	0	0	0	0	458.865	-0.758492	-0.758358	-0.000396976	5	2.12449e-05	42	23.8988	1.428	3.0105e-07	1.91034e+06
2	0	0	0	0	459.545	-0.792492	-0.792362	-0.000631966	5	2.07065e-05	42	23.8988	2.108	5.00746e-07	1.2538e+06
2	0	0	0	0	460.225	-0.826492	-0.826373	-0.000871607	5	1.99985e-05	42	23.8988	2.788	7.20272e-07	948102
2	0	0	0	0	460.905	-0.860492	-0.860379	-0.001095	5	1.91235e-05	42	23.8988	3.468	9.42112e-07	785737
2	0	0	0	0	461.585	-0.894492	-0.894371	-0.00133902	5	1.80754e-05	42	23.8988	4.148	1.19758e-06	667928
2	0	0	0	0	462.265	-0.928492	-0.928372	-0.00159487	5	1.68484e-05	42	23.8988	4.828	1.48063e-06	582100
2	0	0	0	0	462.945	-0.962492	-0.962342	-0.00184131	5	1.54352e-05	42	23.8988	5.508	1.77197e-06	522641
2	0	0	0	0	463.625	-0.996492	-0.996338	-0.002076	5	1.3826e-05	42	23.8988	6.188	2.06839e-06	479932
2	0	0	0	0	464.339	-1.03219	-1.03202	-0.00249544	5	1.19233e-05	41	23.8988	6.902	2.57535e-06	413562
2	0	0	0	0	465.019	-1.06619	-1.06601	-0.00281178	5	9.87972e-06	41	23.8988	7.582	2.99737e-06	379122
2	0	0	0	0	465.699	-1.10019	-1.10001	-0.00322245	5	7.57371e-06	41	23.8988	8.262	3.54474e-06	341359
2	0	0	0	0	466.379	-1.13419	-1.134	-0.00373108	5	4.9438e-06	41	23.8988	8.942	4.23106e-06	303934
2	0	0	0	0	467.059	-1.16819	-1.16803	-0.00427356	5	1.94391e-06	41	23.8988	9.622	4.99164e-06	273315
2	0	0	0	0	467.739	-1.20219	-1.20202	-0.00494303	5	-1.4677e-06	41	23.8988	10.302	5.94164e-06	243175
2	0	0	0	0	468.419	-1.23619	-1.236	-0.00592967	5	-5.44926e-06	41	23.8988	10.982	7.32904e-06	208443
2	0	0	0	0	469.099	-1.27019	-1.27001	-0.0072273	5	-1.02277e-05	41	23.8988	11.662	9.17874e-06	175724
2	0	0	0	0	469.779	-1.30419	-1.304	-0.00892127	5	-1.60168e-05	41	23.8988	12.342	1.16333e-05	146168
2	0	0	0	0	470.459	-1.33819	-1.33802	-0.0108434	5	-2.30328e-05	41	23.8988	13.022	1.45087e-05	123394
2	0	0	1	1	471.094	-1.36989	-1.36973	-0.0129593	5	-3.09253e-05	41	23.8988	13.6576	1.77508e-05	105694
2	0	0	0	1	471.744	-1.33743	-1.33724	-0.00570657	5	-3.60077e-05	41	23.8988	14.3068	7.63104e-06	234333
2	0	0	0	1	472.424	-1.30343	-1.30323	-0.00266735	5	-3.84159e-05	41	23.8988	14.9868	3.47618e-06	488588
2	0	0	0	1	473.104	-1.26943	-1.26926	-0.000778678	5	-3.9214e-05	41	23.8988	15.6668	9.88342e-07	1.63001e+06
2	1	0	0	1	473.784	-1.23543	-1.23524	0.000522757	5	-3.89635e-05	41	23.8988	0.476	-6.45729e-07	2.36293e+06
2	1	0	0	1	474.464	-1.20143	-1.20127	0.00140679	5	-3.80088e-05	41	23.8988	1.156	-1.68993e-06	853910
2	1	0	0	1	475.144	-1.16743	-1.16728	0.00195235	5	-3.65831e-05	41	23.8988	1.836	-2.27893e-06	597881
2	1	0	0	1	475.824	-1.13343	-1.13324	0.00232473	5	-3.48547e-05	41	23.8988	2.516	-2.63447e-06	487470
2	1	0	0	1	476.504	-1.09943	-1.09927	0.00255077	5	-3.29333e-05	41	23.8988	3.196	-2.80398e-06	430955
2	1	0	0	1	477.184	-1.06543	-1.06526	0.00269528	5	-3.08888e-05	41	23.8988	3.876	-2.87116e-06	395230
2	1	0	0	1	477.864	-1.03143	-1.03127	0.00280405	5	-2.87698e-05	41	23.8988	4.556	-2.89173e-06	367778
2	1	0	0	1	478.544	-0.997429	-0.997232	0.00286045	5	-2.66081e-05	41	23.8988	5.236	-2.85254e-06	348627
2	1	0	0	1	479.224	-0.963429	-0.963225	0.00289885	5	-2.44287e-05	41	23.8988	5.916	-2.79224e-06	332279
2	1	0	0	1	479.904	-0.929429	-0.929277	0.00289487	5	-2.22501e-05	41	23.8988	6.596	-2.69013e-06	321008
2	1	0	0	1	480.584	-0.895429	-0.895256	0.00288951	5	-2.00863e-05	41	23.8988	7.276	-2.58685e-06	309830
2	1	0	0	1	481.298	-0.859729	-0.859512	0.00280143	5	-1.78447e-05	42	23.8988	7.99	-2.40786e-06	306812
2	1	0	0	1	481.978	-0.825729	-0.825503	0.0027747	5	-1.574e-05	42	23.8988	8.67	-2.29052e-06	297511
2	1	0	0	1	482.535	-0.797849	-0.797602	0.00274102	6	-1.40419e-05	42	23.8988	9.2276	-2.18625e-06	290987
2	1	0	0	1	483.215	-0.763849	-0.763619	0.00269243	6	-1.20091e-05	42	23.8988	9.9076	-2.05599e-06	283617
2	1	0	0	1	483.895	-0.729849	-0.729634	0.00265497	6	-1.00142e-05	42	23.8988	10.5876	-1.93715e-06	274818
2	1	0	0	1	484.575	-0.695849	-0.695653	0.00262325	6	-8.05303e-06	42	23.8988	11.2676	-1.82487e-06	265188
2	1	0	0	1	485.255	-0.661849	-0.661637	0.00259067	6	-6.12088e-06	42	23.8988	11.9476	-1.71408e-06	255392
2	1	0	0	1	485.935	-0.627849	-0.627621	0.00256982	6	-4.21247e-06	42	23.8988	12.6276	-1.61287e-06	244228
2	1	0	1	1	486.529	-0.602092	-0.601935	0.00208959	6	-2.5928e-06	42	23.8988	13.221	-1.2578e-06	288064
2	1	0	1	1	487.209	-0.636092	-0.635939	0.00081237	6	-1.88819e-06	42	23.8988	13.901	-5.16618e-07	782819
2	1	0	1	1	487.889	-0.670092	-0.66995	0.000328158	6	-1.66792e-06	42	23.8988	14.581	-2.1985e-07	2.04154e+06
2	0	0	1	1	488.569	-0.704092	-0.703966	-1.69294e-05	6	-1.7283e-06	42	23.8988	0.476	1.19177e-08	4.15823e+07
2	0	0	1	1	489.249	-0.738092	-0.738006	-0.000298013	6	-2.006e-06	42	23.8988	1.156	2.19935e-07	2.47643e+06
2	0	0	1	1	489.929	-0.772092	-0.77197	-0.000537939	6	-2.46902e-06	42	23.8988	1.836	4.15273e-07	1.43505e+06
2	0	0	1	1	490.609	-0.806092	-0.805979	-0.000768053	6	-3.10188e-06	42	23.8988	2.516	6.19034e-07	1.04938e+06
2	0	0	1	1	491.289	-0.840092	-0.839967	-0.000989903	6	-3.89854e-06	42	23.8988	3.196	8.31485e-07	848535
2	0	0	1	1	491.969	-0.874092	-0.873969	-0.00121418	6	-4.85985e-06	42	23.8988	3.876	1.06115e-06	719803
2	0	0	1	1	492.649	-0.908092	-0.907964	-0.00143859	6	-5.99276e-06	42	23.8988	4.556	1.30619e-06	631148
2	0	0	1	1	493.329	-0.942092	-0.941958	-0.00167348	6	-7.30513e-06	42	23.8988	5.236	1.57635e-06	562873
2	0	0	1	1	494.009	-0.976092	-0.975931	-0.00190136	6	-8.8042e-06	42	23.8988	5.916	1.8556e-06	513281
2	0	0	1	1	494.716	-1.01145	-1.01128	-0.00234839	6	-1.05787e-05	41	23.8988	6.6232	2.37489e-06	430629
2	0	0	1	1	495.396	-1.04545	-1.04529	-0.00264872	6	-1.24918e-05	41	23.8988	7.3032	2.76867e-06	394638
2	0	0	1	1	496.076	-1.07945	-1.0793	-0.00299798	6	-1.46363e-05	41	23.8988	7.9832	3.23572e-06	360009
2	0	0	1	1	496.756	-1.11345	-1.11327	-0.00343998	6	-1.70676e-05	41	23.8988	8.6632	3.82961e-06	323626
2	0	0	1	1	497.436	-1.14745	-1.14725	-0.00396315	6	-1.98505e-05	41	23.8988	9.3432	4.54673e-06	289480
2	0	0	1	1	498.116	-1.18145	-1.18127	-0.00456486	6	-2.30233e-05	41	23.8988	10.0232	5.39233e-06	258775
2	0	0	1	1	498.796	-1.21545	-1.21528	-0.00533969	6	-2.66599e-05	41	23.8988	10.7032	6.4892e-06	227593
2	0	0	1	1	499.476	-1.24945	-1.24927	-0.0064664	6	-3.09642e-05	41	23.8988	11.3832	8.07829e-06	193194
2	0	0	1	1	500.156	-1.28345	-1.28328	-0.00792937	6	-3.61678e-05	41	23.8988	12.0632	1.01756e-05	161839
2	0	0	1	1	500.836	-1.31745	-1.31725	-0.00967867	6	-4.24841e-05	41	23.8988	12.7432	1.27492e-05	136098
2	0	0	1	1	501.516	-1.35145	-1.35126	-0.0118781	6	-5.01415e-05	41	23.8988	13.4232	1.60504e-05	113761
2	0	0	0	0	502.128	-1.3578	-1.35762	-0.00904474	6	-5.74133e-05	41	23.8988	14.0354	1.22793e-05	150100
2	0	0	0	0	502.808	-1.3238	-1.32362	-0.00444407	6	-6.14328e-05	41	23.8988	14.7154	5.88227e-06	297840
2	0	0	0	0	503.488	-1.2898	-1.2896	-0.00194437	6	-6.32015e-05	41	23.8988	15.3954	2.50746e-06	663247
2	0	0	0	0	504.168	-1.2558	-1.25561	-0.000327904	6	-6.36114e-05	41	23.8988	0.000000000000000E+000	4.1172e-07	3.82921e+06
2	1	0	0	0	504.848	-1.2218	-1.2216	0.000784836	6	-6.31119e-05	41	23.8988	0.68	-9.58756e-07	1.5565e+06
2	1	0	0	0	505.528	-1.1878	-1.1876	0.00157656	6	-6.1996e-05	41	23.8988	1.36	-1.87232e-06	753289
2	1	0	1	0	506.208	-1.1538	-1.15361	0.00208977	6	-6.04784e-05	41	23.8988	2.0399	-2.41078e-06	552026
2	1	0	1	0	506.888	-1.11981	-1.11964	0.00239335	6	-5.86996e-05	41	23.8988	2.7198	-2.67968e-06	467813
2	1	0	1	0	507.568	-1.08581	-1.08562	0.00258413	6	-5.67572e-05	41	23.8988	3.3998	-2.80539e-06	420112
2	1	0	1	0	508.248	-1.05181	-1.05161	0.00271551	6	-5.47106e-05	41	23.8988	4.0798	-2.85566e-06	387262
2	1	0	1	0	508.928	-1.01781	-1.01762	0.00278266	6	-5.26032e-05	41	23.8988	4.7598	-2.83167e-06	365699
2	1	0	1	0	509.608	-0.983809	-0.983625	0.00284562	6	-5.04637e-05	41	23.8988	5.4398	-2.79902e-06	345663
2	1	0	1	0	510.288	-0.949809	-0.949604	0.00285814	6	-4.83137e-05	41	23.8988	6.1198	-2.7141e-06	332245
2	1	0	1	0	510.968	-0.915809	-0.915614	0.00284771	6	-4.61708e-05	41	23.8988	6.7998	-2.60741e-06	321526
2	1	0	1	0	511.675	-0.880449	-0.880186	0.00277706	6	-4.39614e-05	42	23.8988	7.507	-2.44433e-06	316949
2	1	0	1	0	512.355	-0.846449	-0.846201	0.00274108	6	-4.18688e-05	42	23.8988	8.187	-2.3195e-06	308711
2	1	0	1	0	513.035	-0.812449	-0.81221	0.00270536	6	-3.98147e-05	42	23.8988	8.867	-2.19732e-06	300223
2	1	0	1	0	513.599	-0.784229	-0.78397	0.00266826	7	-3.814e-05	42	23.8988	9.4314	-2.09184e-06	293813
2	1	0	1	0	514.279	-0.750229	-0.749993	0.00263157	7	-3.61604e-05	42	23.8988	10.1114	-1.97366e-06	284998
2	1	0	1	0	514.959	-0.716229	-0.715999	0.00258048	7	-3.4219e-05	42	23.8988	10.7914	-1.84762e-06	277467
2	1	0	1	0	515.639	-0.682229	-0.681997	0.00254673	7	-3.23119e-05	42	23.8988	11.4714	-1.73686e-06	267793
2	1	0	1	0	516.319	-0.648229	-0.647998	0.00251479	7	-3.04346e-05	42	23.8988	12.1514	-1.62958e-06	257674
2	1	0	1	0	516.999	-0.614229	-0.613974	0.00248868	7	-2.85807e-05	42	23.8988	12.8314	-1.52799e-06	246707
2	1	0	0	0	517.593	-0.615692	-0.615513	0.00121004	7	-2.73841e-05	42	23.8988	13.4248	-7.44793e-07	508673
2	1	0	0	0	518.273	-0.649692	-0.649529	0.000518124	7	-2.69656e-05	42	23.8988	14.1048	-3.36536e-07	1.25362e+06
2	1	0	0	0	518.953	-0.683692	-0.683541	0.000124675	7	-2.69006e-05	42	23.8988	0.068	-8.52206e-08	5.48257e+06
2	0	0	0	0	519.633	-0.717692	-0.71754	-0.00016959	7	-2.70796e-05	42	23.8988	0.748	1.21687e-07	4.23103e+06
2	0	0	0	0	520.313	-0.751692	-0.751557	-0.000432967	7	-2.74563e-05	42	23.8988	1.428	3.254e-07	1.73583e+06
2	0	0	0	0	520.993	-0.785692	-0.785538	-0.000663927	7	-2.80071e-05	42	23.8988	2.108	5.2154e-07	1.18317e+06
2	0	0	0	0	521.673	-0.819692	-0.819558	-0.000888144	7	-2.87216e-05	42	23.8988	2.788	7.27885e-07	922776
2	0	0	0	0	522.353	-0.853692	-0.853555	-0.00109823	7	-2.95967e-05	42	23.8988	3.468	9.37397e-07	777212
2	0	0	0	0	523.033	-0.887692	-0.887564	-0.00132418	7	-3.06365e-05	42	23.8988	4.148	1.17529e-06	670274
2	0	0	0	0	523.713	-0.921692	-0.921557	-0.0015505	7	-3.18486e-05	42	23.8988	4.828	1.42888e-06	594360
2	0	0	0	0	524.393	-0.955692	-0.955522	-0.00177895	7	-3.32414e-05	42	23.8988	5.508	1.69982e-06	537128
2	0	0	0	0	525.073	-0.989692	-0.989551	-0.00200635	7	-3.48232e-05	42	23.8988	6.188	1.98538e-06	493210
2	0	0	0	0	525.753	-1.02369	-1.02353	-0.00223472	7	-3.66e-05	42	23.8988	6.868	2.2873e-06	458011
2	0	0	0	0	526.467	-1.05939	-1.05922	-0.00277053	7	-3.8698e-05	41	23.8988	7.582	2.93461e-06	382317
2	0	0	0	0	527.147	-1.09339	-1.09324	-0.00318736	7	-4.09553e-05	41	23.8988	8.262	3.48455e-06	342992
2	0	0	0	0	527.827	-1.12739	-1.12721	-0.00368647	7	-4.3528e-05	41	23.8988	8.942	4.15544e-06	305770
2	0	0	0	0	528.507	-1.16139	-1.16121	-0.00425537	7	-4.64842e-05	41	23.8988	9.622	4.94138e-06	272881
2	0	0	0	0	529.187	-1.19539	-1.19521	-0.00488785	7	-4.98507e-05	41	23.8988	10.302	5.84201e-06	244527
2	0	0	0	0	529.867	-1.22939	-1.22918	-0.00581553	7	-5.37573e-05	41	23.8988	10.982	7.14833e-06	211361
2	0	0	0	0	530.547	-1.26339	-1.2632	-0.00710936	7	-5.84434e-05	41	23.8988	11.662	8.98058e-06	177682
2	0	0	0	0	531.227	-1.29739	-1.29719	-0.00872059	7	-6.41351e-05	41	23.8988	12.342	1.13123e-05	148751
2	0	0	0	0	531.907	-1.33139	-1.33121	-0.0106416	7	-7.10495e-05	41	23.8988	13.022	1.41662e-05	125095
2	0	0	0	0	532.587	-1.36539	-1.3652	-0.0130314	7	-7.94302e-05	41	23.8988	13.702	1.77904e-05	104763
2	0	0	1	1	533.192	-1.3442	-1.344	-0.0068917	7	-8.51935e-05	41	23.8988	14.3074	9.26247e-06	195018
2	0	0	0	1	533.872	-1.31023	-1.31002	-0.00342066	7	-8.82376e-05	41	23.8988	14.9868	4.48111e-06	382972
2	0	0	0	1	534.552	-1.27623	-1.27604	-0.00130638	7	-8.94753e-05	41	23.8988	15.6668	1.667e-06	976774
2	0	0	0	1	535.232	-1.24223	-1.24205	0.000103533	7	-8.95453e-05	41	23.8988	0.204	-1.28593e-07	1.19966e+07
2	1	0	0	1	535.912	-1.20823	-1.20804	0.00106819	7	-8.88221e-05	41	23.8988	0.884	-1.29041e-06	1.13093e+06
2	1	0	0	1	536.592	-1.17423	-1.17405	0.00170405	7	-8.75674e-05	41	23.8988	1.564	-2.00064e-06	688978
2	1	0	0	1	537.272	-1.14023	-1.14003	0.00212333	7	-8.59661e-05	41	23.8988	2.244	-2.42067e-06	536906
2	1	0	0	1	537.952	-1.10623	-1.10606	0.00239249	7	-8.41446e-05	41	23.8988	2.924	-2.64623e-06	462303
2	1	0	0	1	538.632	-1.07223	-1.07205	0.00257915	7	-8.21802e-05	41	23.8988	3.604	-2.76496e-06	415659
2	1	0	0	1	539.312	-1.03823	-1.03805	0.00271407	7	-8.01293e-05	41	23.8988	4.284	-2.81735e-06	382471
2	1	0	0	1	539.992	-1.00423	-1.00406	0.00279073	7	-7.80295e-05	41	23.8988	4.964	-2.80207e-06	359785
2	1	0	0	1	540.672	-0.970229	-0.970024	0.00285418	7	-7.59056e-05	41	23.8988	5.644	-2.76863e-06	339860
2	1	0	0	1	541.352	-0.936229	-0.936032	0.00285832	7	-7.37801e-05	41	23.8988	6.324	-2.67548e-06	327476
2	1	0	0	1	542.032	-0.902229	-0.90205	0.00282813	7	-7.16661e-05	41	23.8988	7.004	-2.55111e-06	318956
2	1	0	0	1	542.739	-0.866869	-0.866627	0.00273232	7	-6.94908e-05	42	23.8988	7.7112	-2.36791e-06	317176
2	1	0	0	1	543.419	-0.832869	-0.832638	0.00269161	7	-6.74381e-05	42	23.8988	8.3912	-2.24114e-06	309346
2	1	0	0	1	544.072	-0.800229	-0.799992	0.00267333	7	-6.55051e-05	42	23.8988	9.044	-2.13864e-06	299249
2	1	0	0	1	544.663	-0.770649	-0.770405	0.00263094	8	-6.37885e-05	42	23.8988	9.6356	-2.02689e-06	292825
2	1	0	0	1	545.343	-0.736649	-0.73641	0.0025884	8	-6.18518e-05	42	23.8988	10.3156	-1.90612e-06	284504
2	1	0	0	1	546.023	-0.702649	-0.702399	0.0025466	8	-5.9952e-05	42	23.8988	10.9956	-1.78873e-06	275818
2	1	0	0	1	546.703	-0.668649	-0.668402	0.00250412	8	-5.80878e-05	42	23.8988	11.6756	-1.67376e-06	266920
2	1	0	0	1	547.383	-0.634649	-0.634382	0.00247256	8	-5.62523e-05	42	23.8988	12.3556	-1.56854e-06	256569
2	1	0	0	1	548.05	-0.601329	-0.601072	0.00244979	8	-5.44766e-05	42	23.8988	13.022	-1.4725e-06	245356
2	1	0	0	1	548.656	-0.629282	-0.629097	0.0008567	8	-5.37811e-05	42	23.8988	13.6288	-5.38947e-07	734326
2	1	0	0	1	549.336	-0.663282	-0.663133	0.000333307	8	-5.35511e-05	42	23.8988	14.3088	-2.21027e-07	1.98955e+06
2	1	0	0	1	550.016	-0.697282	-0.697135	-3.05528e-05	8	-5.36117e-05	42	23.8988	0.408	2.12994e-08	2.28174e+07
2	0	0	0	1	550.696	-0.731282	-0.73116	-0.000321563	8	-5.38905e-05	42	23.8988	1.088	2.35114e-07	2.27377e+06
2	0	0	0	1	551.376	-0.765282	-0.765143	-0.000565234	8	-5.43544e-05	42	23.8988	1.768	4.32485e-07	1.35367e+06
2	0	0	0	1	552.056	-0.799282	-0.799144	-0.000784545	8	-5.49835e-05	42	23.8988	2.448	6.26965e-07	1.01861e+06
2	0	0	0	1	552.736	-0.833282	-0.83316	-0.000988974	8	-5.57727e-05	42	23.8988	3.128	8.23974e-07	842449
2	0	0	0	1	553.416	-0.867282	-0.86715	-0.00120526	8	-5.67215e-05	42	23.8988	3.808	1.04514e-06	719474
2	0	0	0	1	554.096	-0.901282	-0.901179	-0.00143113	8	-5.7836e-05	42	23.8988	4.488	1.2897e-06	629698
2	0	0	0	1	554.776	-0.935282	-0.935158	-0.00165399	8	-5.91251e-05	42	23.8988	5.168	1.54674e-06	565396
2	0	0	0	1	555.456	-0.969282	-0.969121	-0.00188076	8	-6.05969e-05	42	23.8988	5.848	1.82268e-06	515282
2	0	0	0	1	556.136	-1.00328	-1.00314	-0.00210855	8	-6.22592e-05	42	23.8988	6.528	2.11516e-06	475749
2	0	0	0	1	556.844	-1.03864	-1.03849	-0.00255558	8	-6.41975e-05	41	23.8988	7.2352	2.65395e-06	406364
2	0	0	0	1	557.524	-1.07264	-1.0725	-0.002894	8	-6.62984e-05	41	23.8988	7.9152	3.10381e-06	370592
2	0	0	0	1	558.204	-1.10664	-1.10648	-0.0033375	8	-6.86758e-05	41	23.8988	8.5952	3.69287e-06	331529
2	0	0	0	1	558.884	-1.14064	-1.14044	-0.0038844	8	-7.1402e-05	41	23.8988	9.2752	4.42993e-06	293595
2	0	0	0	1	559.564	-1.17464	-1.17447	-0.004506	8	-7.45332e-05	41	23.8988	9.9552	5.29216e-06	260646
2	0	0	0	1	560.244	-1.20864	-1.20846	-0.00526763	8	-7.81131e-05	41	23.8988	10.6352	6.36571e-06	229412
2	0	0	0	1	560.924	-1.24264	-1.24248	-0.00638749	8	-8.23322e-05	41	23.8988	11.3152	7.93633e-06	194518
2	0	0	0	1	561.604	-1.27664	-1.27646	-0.00781647	8	-8.7437e-05	41	23.8988	11.9952	9.97741e-06	163304
2	0	0	0	1	562.284	-1.31064	-1.31042	-0.00955831	8	-9.36506e-05	41	23.8988	12.6752	1.25254e-05	137098
2	0	0	0	1	562.964	-1.34464	-1.34445	-0.0116468	8	-0.000101194	41	23.8988	13.3552	1.56586e-05	115435
2	0	0	1	0	563.576	-1.3646	-1.36441	-0.0111189	8	-0.000109039	41	23.8988	13.9674	1.51707e-05	122711
2	0	0	1	0	564.256	-1.3306	-1.3304	-0.00541789	8	-0.000113961	41	23.8988	14.6474	7.20798e-06	245557
2	0	0	1	0	564.936	-1.2966	-1.2964	-0.00255954	8	-0.00011626	41	23.8988	15.3274	3.31819e-06	506497
2	0	0	1	0	565.616	-1.2626	-1.26241	-0.000772638	8	-0.000117043	41	23.8988	16.0074	9.75389e-07	1.6339e+06
2	1	0	1	0	566.296	-1.2286	-1.22839	0.000474268	8	-0.000116814	41	23.8988	0.476	-5.82588e-07	2.59009e+06
2	1	0	1	0	566.976	-1.1946	-1.19441	0.00130059	8	-0.000115895	41	23.8988	1.156	-1.55343e-06	918364
2	1	0	1	0	567.656	-1.1606	-1.16042	0.00184768	8	-0.000114519	41	23.8988	1.836	-2.14408e-06	628041
2	1	0	1	0	568.336	-1.1266	-1.12642	0.00221896	8	-0.000112847	41	23.8988	2.516	-2.49947e-06	507634
2	1	0	1	0	569.016	-1.0926	-1.09242	0.00244942	8	-0.000110986	41	23.8988	3.196	-2.67579e-06	445992
2	1	0	1	0	569.696	-1.0586	-1.05841	0.00260761	8	-0.000109005	41	23.8988	3.876	-2.75993e-06	405894
2	1	0	0	0	570.376	-1.02461	-1.02443	0.00269644	8	-0.000106952	41	23.8988	4.5558	-2.76231e-06	379920
2	1	0	0	0	571.056	-0.990609	-0.990405	0.00275257	8	-0.00010486	41	23.8988	5.2358	-2.72616e-06	359811
2	1	0	0	0	571.77	-0.954909	-0.954637	0.00272167	8	-0.000102649	42	23.8988	5.9498	-2.59821e-06	350754
2	1	0	0	0	572.45	-0.920909	-0.920673	0.00275607	8	-0.000100541	42	23.8988	6.6298	-2.53744e-06	334053
2	1	0	0	0	573.13	-0.886909	-0.88666	0.00274919	8	-9.84497e-05	42	23.8988	7.3098	-2.43759e-06	322517
2	1	0	0	0	573.81	-0.852909	-0.85268	0.00270582	8	-9.6392e-05	42	23.8988	7.9898	-2.3072e-06	315128
2	1	0	0	0	574.49	-0.818909	-0.81868	0.00265366	8	-9.43736e-05	42	23.8988	8.6698	-2.1725e-06	308510
2	1	0	0	0	575.047	-0.791029	-0.790771	0.0026041	9	-9.27524e-05	42	23.8988	9.2274	-2.05925e-06	303664
2	1	0	0	0	575.727	-0.757029	-0.756802	0.00255672	9	-9.08117e-05	42	23.8988	9.9074	-1.93493e-06	296004
2	1	0	0	0	576.407	-0.723029	-0.722776	0.00251754	9	-8.89103e-05	42	23.8988	10.5874	-1.81962e-06	287096
2	1	0	0	0	577.087	-0.689029	-0.688799	0.00248633	9	-8.70482e-05	42	23.8988	11.2674	-1.71258e-06	277034
2	1	0	0	0	577.767	-0.655029	-0.654793	0.00245554	9	-8.52193e-05	42	23.8988	11.9474	-1.60787e-06	266659
2	1	0	0	0	578.447	-0.621029	-0.620775	0.00242518	9	-8.34188e-05	42	23.8988	12.6274	-1.50549e-06	255971
2	1	0	1	0	579.041	-0.608892	-0.608712	0.00141125	9	-8.20581e-05	42	23.8988	13.2208	-8.59042e-07	431330
2	1	0	1	0	579.721	-0.642892	-0.642707	0.000585203	9	-8.15822e-05	42	23.8988	13.9008	-3.76114e-07	1.09826e+06
2	1	0	1	0	580.401	-0.676892	-0.676727	0.000156616	9	-8.14983e-05	42	23.8988	0.068	-1.05987e-07	4.32092e+06
2	0	0	1	0	581.081	-0.710892	-0.710744	-0.000150353	9	-8.1666e-05	42	23.8988	0.748	1.06862e-07	4.72719e+06
2	0	0	1	0	581.761	-0.744892	-0.744737	-0.0004152	9	-8.20344e-05	42	23.8988	1.428	3.09215e-07	1.79368e+06
2	0	0	1	0	582.441	-0.778892	-0.778733	-0.000655191	9	-8.2575e-05	42	23.8988	2.108	5.10219e-07	1.18856e+06
2	0	0	1	0	583.121	-0.812892	-0.812758	-0.000885725	9	-8.32765e-05	42	23.8988	2.788	7.1988e-07	917618
2	0	0	1	0	583.801	-0.846892	-0.846747	-0.001104	9	-8.41357e-05	42	23.8988	3.468	9.3481e-07	766980
2	0	0	1	0	584.481	-0.880892	-0.880736	-0.00131664	9	-8.51566e-05	42	23.8988	4.148	1.15962e-06	668926
2	0	0	1	0	585.161	-0.914892	-0.914755	-0.00153615	9	-8.63447e-05	42	23.8988	4.828	1.4052e-06	595487
2	0	0	1	0	585.841	-0.948892	-0.948731	-0.00175048	9	-8.77098e-05	42	23.8988	5.508	1.66074e-06	541982
2	0	0	1	0	586.521	-0.982892	-0.982741	-0.00197908	9	-8.92599e-05	42	23.8988	6.188	1.94493e-06	496563
2	0	0	1	0	587.228	-1.01825	-1.01806	-0.00238153	9	-9.10828e-05	41	23.8988	6.8952	2.42453e-06	427481
2	0	0	1	0	587.908	-1.05225	-1.05208	-0.00269283	9	-9.30469e-05	41	23.8988	7.5752	2.83307e-06	390697
2	0	0	1	0	588.588	-1.08625	-1.08607	-0.00306495	9	-9.52541e-05	41	23.8988	8.2552	3.32875e-06	354352
2	0	0	1	0	589.268	-1.12025	-1.12006	-0.00355905	9	-9.7768e-05	41	23.8988	8.9352	3.98635e-06	314708
2	0	0	1	0	589.948	-1.15425	-1.15409	-0.00415039	9	-0.000100665	41	23.8988	9.6152	4.78992e-06	278068
2	0	0	1	0	590.628	-1.18825	-1.18807	-0.0047782	9	-0.000103984	41	23.8988	10.2952	5.67682e-06	248643
2	0	0	1	0	591.308	-1.22225	-1.22206	-0.00566658	9	-0.000107817	41	23.8988	10.9752	6.92488e-06	215660
2	0	0	1	0	591.988	-1.25625	-1.25606	-0.00699818	9	-0.000112398	41	23.8988	11.6552	8.79016e-06	179485
2	0	0	1	0	592.668	-1.29025	-1.29006	-0.00858939	9	-0.000117978	41	23.8988	12.3352	1.10808e-05	150192
2	0	0	1	0	593.348	-1.32425	-1.32407	-0.0104835	9	-0.000124769	41	23.8988	13.0152	1.38809e-05	126300
2	0	0	1	0	594.028	-1.35825	-1.35806	-0.0127326	9	-0.000132999	41	23.8988	13.6952	1.72916e-05	106660
2	0	0	0	1	594.64	-1.351	-1.35081	-0.00825668	9	-0.000139902	41	23.8988	14.3074	1.11532e-05	163602
2	0	0	0	1	595.32	-1.317	-1.3168	-0.00425701	9	-0.00014364	41	23.8988	14.9874	5.60563e-06	309325
2	0	0	0	1	596	-1.28302	-1.28283	-0.00184943	9	-0.000145322	41	23.8988	15.667	2.37252e-06	693636
2	0	0	0	1	596.68	-1.24902	-1.24885	-0.00025779	9	-0.000145709	41	23.8988	0.000000000000000E+000	3.21942e-07	4.84446e+06
2	1	0	0	1	597.36	-1.21502	-1.21483	0.000810909	9	-0.000145215	41	23.8988	0.68	-9.85117e-07	1.49811e+06
2	1	0	0	1	598.04	-1.18102	-1.18084	0.00152029	9	-0.000144123	41	23.8988	1.36	-1.79522e-06	776718
2	1	0	0	1	598.72	-1.14702	-1.14682	0.00200352	9	-0.000142639	41	23.8988	2.04	-2.29768e-06	572403
2	1	0	0	1	599.4	-1.11302	-1.11283	0.00229113	9	-0.000140904	41	23.8988	2.72	-2.54963e-06	485710
2	1	0	1	1	600.079	-1.07903	-1.07888	0.00249053	9	-0.000139008	41	23.8988	3.3998	-2.68698e-06	433192
2	1	0	1	1	600.759	-1.04503	-1.04486	0.00262415	9	-0.00013701	41	23.8988	4.0798	-2.74187e-06	398169
2	1	0	1	1	601.439	-1.01103	-1.01084	0.00271262	9	-0.000134953	41	23.8988	4.7598	-2.74203e-06	372645
2	1	0	1	1	602.119	-0.977029	-0.976833	0.00275571	9	-0.000132865	41	23.8988	5.4398	-2.69186e-06	354476
2	1	0	0	1	602.799	-0.943039	-0.942846	0.00276249	9	-0.000130771	41	23.8988	6.1196	-2.6046e-06	341303
2	1	0	0	1	603.479	-0.909039	-0.908863	0.00275366	9	-0.000128687	41	23.8988	6.7996	-2.5027e-06	330056
2	1	0	0	1	604.186	-0.873679	-0.873427	0.00267857	9	-0.000126541	42	23.8988	7.5068	-2.33954e-06	326079
2	1	0	0	1	604.866	-0.839679	-0.839416	0.00264838	9	-0.000124512	42	23.8988	8.1868	-2.2231e-06	316954
2	1	0	0	1	605.546	-0.805679	-0.805407	0.00260676	9	-0.000122525	42	23.8988	8.8668	-2.09951e-06	308968
2	1	0	0	1	606.111	-0.777459	-0.777214	0.00256937	10	-0.000120907	42	23.8988	9.4312	-1.99695e-06	302492
2	1	0	0	1	606.791	-0.743459	-0.743229	0.0025205	10	-0.000118998	42	23.8988	10.1112	-1.87331e-06	294874
2	1	0	0	1	607.471	-0.709459	-0.709233	0.00247232	10	-0.00011713	42	23.8988	10.7912	-1.75345e-06	286869
2	1	0	0	1	608.151	-0.675459	-0.67522	0.00242725	10	-0.000115299	42	23.8988	11.4712	-1.63893e-06	278184
2	1	0	0	1	608.831	-0.641459	-0.641217	0.00240005	10	-0.000113501	42	23.8988	12.1512	-1.53895e-06	267169
2	1	0	0	1	609.511	-0.607459	-0.607219	0.0023664	10	-0.000111731	42	23.8988	12.8312	-1.43692e-06	256601
2	1	0	0	1	610.104	-0.622482	-0.622309	0.000939085	10	-0.000110842	42	23.8988	13.4244	-5.84401e-07	662676
2	1	0	0	1	610.784	-0.656482	-0.656309	0.00037288	10	-0.000110569	42	23.8988	14.1044	-2.44725e-07	1.76011e+06
2	1	0	0	1	611.464	-0.690482	-0.690325	6.17889e-06	10	-0.000110607	42	23.8988	0.408	-4.26544e-09	1.11723e+08
2	0	0	0	1	612.144	-0.724482	-0.724326	-0.000278657	10	-0.000110869	42	23.8988	1.088	2.01838e-07	2.59935e+06
2	0	0	0	1	612.824	-0.758482	-0.75834	-0.000523295	10	-0.000111316	42	23.8988	1.768	3.96835e-07	1.44916e+06
2	0	0	0	1	613.504	-0.792482	-0.792352	-0.000733048	10	-0.000111929	42	23.8988	2.448	5.80832e-07	1.0809e+06
2	0	0	0	1	614.184	-0.826482	-0.826327	-0.000950592	10	-0.000112699	42	23.8988	3.128	7.855e-07	869276
2	0	0	0	1	614.864	-0.860482	-0.860337	-0.00116055	10	-0.000113626	42	23.8988	3.808	9.9846e-07	741322
2	0	0	0	1	615.544	-0.894482	-0.894329	-0.00138149	10	-0.000114717	42	23.8988	4.488	1.23551e-06	647366
2	0	0	0	1	616.224	-0.928482	-0.928345	-0.00163652	10	-0.000115978	42	23.8988	5.168	1.51925e-06	567269
2	0	0	0	1	616.931	-0.963842	-0.963626	-0.0019903	10	-0.000117489	41	23.8988	5.8752	1.91791e-06	484161
2	0	0	0	1	617.611	-0.997842	-0.997641	-0.0022388	10	-0.000119129	41	23.8988	6.5552	2.23352e-06	445615
2	0	0	0	1	618.291	-1.03184	-1.03168	-0.00252052	10	-0.000120968	41	23.8988	7.2352	2.60038e-06	409312
2	0	0	0	1	618.971	-1.06584	-1.06566	-0.00284705	10	-0.000123027	41	23.8988	7.9152	3.03397e-06	374302
2	0	0	0	1	619.651	-1.09984	-1.09967	-0.00325487	10	-0.000125353	41	23.8988	8.5952	3.5793e-06	337855
2	0	0	0	1	620.331	-1.13384	-1.13365	-0.00381441	10	-0.000128021	41	23.8988	9.2752	4.3242e-06	297201
2	0	0	0	1	621.011	-1.16784	-1.16765	-0.0044238	10	-0.0001311	41	23.8988	9.9552	5.16547e-06	263948
2	0	0	1	1	621.691	-1.20183	-1.20165	-0.00513084	10	-0.000134626	41	23.8988	10.635	6.16549e-06	234202
2	0	0	1	1	622.371	-1.23583	-1.23562	-0.00617828	10	-0.000138754	41	23.8988	11.315	7.63404e-06	199995
2	0	0	1	1	623.051	-1.26983	-1.26965	-0.00762643	10	-0.000143747	41	23.8988	11.995	9.6829e-06	166480
2	0	0	1	1	623.731	-1.30383	-1.30363	-0.00942414	10	-0.000149844	41	23.8988	12.675	1.22856e-05	138329
2	0	0	1	1	624.411	-1.33783	-1.33762	-0.0114676	10	-0.000157259	41	23.8988	13.355	1.53394e-05	116643
2	0	0	1	0	625.054	-1.36986	-1.36965	-0.013829	10	-0.000165697	41	23.8988	13.998	1.89408e-05	99042.2
2	0	0	1	0	625.703	-1.33739	-1.3372	-0.00642269	10	-0.000171277	41	23.8988	14.6474	8.58843e-06	208200
2	0	0	0	0	626.383	-1.30342	-1.30322	-0.00327853	10	-0.000174131	41	23.8988	15.3268	4.27264e-06	397502
2	0	0	0	0	627.063	-1.26942	-1.26923	-0.00127096	10	-0.000175296	41	23.8988	16.0068	1.61315e-06	998639
2	1	0	0	0	627.743	-1.23542	-1.23523	0.000161103	10	-0.000175337	41	23.8988	0.272	-1.98998e-07	7.66731e+06
2	1	0	0	0	628.422	-1.20144	-1.20126	0.0010905	10	-0.00017461	41	23.8988	0.9516	-1.30998e-06	1.10157e+06
2	1	0	1	0	629.102	-1.16745	-1.16728	0.00172298	10	-0.000173366	41	23.8988	1.6314	-2.0112e-06	677480
2	1	0	1	0	629.782	-1.13345	-1.13326	0.0021254	10	-0.000171792	41	23.8988	2.3114	-2.40863e-06	533197
2	1	0	1	0	630.462	-1.09945	-1.09928	0.00237038	10	-0.000170002	41	23.8988	2.9914	-2.60571e-06	463758
2	1	0	1	0	631.142	-1.06545	-1.06527	0.00254146	10	-0.000168075	41	23.8988	3.6714	-2.70735e-06	419156
2	1	0	1	0	631.822	-1.03145	-1.03128	0.00265646	10	-0.000166064	41	23.8988	4.3514	-2.73954e-06	388215
2	1	0	1	0	632.502	-0.997449	-0.997257	0.00271454	10	-0.000164005	41	23.8988	5.0314	-2.70709e-06	367376
2	1	0	1	0	633.182	-0.963449	-0.963251	0.00275173	10	-0.000161925	41	23.8988	5.7114	-2.65061e-06	350053
2	1	0	1	0	633.862	-0.929449	-0.929267	0.00275689	10	-0.000159845	41	23.8988	6.3914	-2.56188e-06	337071
2	1	0	1	0	634.542	-0.895449	-0.895272	0.00273668	10	-0.00015778	41	23.8988	7.0714	-2.45007e-06	327138
2	1	0	0	0	635.249	-0.860099	-0.859866	0.0026541	10	-0.000155657	42	23.8988	7.7784	-2.28217e-06	323976
2	1	0	0	0	635.929	-0.826099	-0.825865	0.0026131	10	-0.000153656	42	23.8988	8.4584	-2.15807e-06	316048
2	1	0	0	0	636.494	-0.797879	-0.797627	0.00258574	11	-0.000152026	42	23.8988	9.0228	-2.06245e-06	308472
2	1	0	0	0	637.174	-0.763879	-0.763643	0.00253317	11	-0.000150104	42	23.8988	9.7028	-1.93444e-06	301457
2	1	0	0	0	637.854	-0.729879	-0.729645	0.00249248	11	-0.000148225	42	23.8988	10.3828	-1.81863e-06	292739
2	1	0	0	0	638.534	-0.695879	-0.695657	0.00243418	11	-0.000146386	42	23.8988	11.0628	-1.69336e-06	285787
2	1	0	0	0	639.214	-0.661879	-0.661645	0.00240296	11	-0.000144583	42	23.8988	11.7428	-1.58991e-06	275346
2	1	0	0	0	639.894	-0.627879	-0.62763	0.00235452	11	-0.000142811	42	23.8988	12.4228	-1.47777e-06	266565
2	1	0	1	0	640.448	-0.599829	-0.599916	0.00244049	11	-0.000141386	42	23.8988	12.9772	-1.46409e-06	245818
2	1	0	1	0	641.036	-0.629552	-0.629367	0.000778427	11	-0.000140797	42	23.8988	13.5654	-4.89916e-07	808512
2	1	0	1	0	641.716	-0.663552	-0.66341	0.000271082	11	-0.000140612	42	23.8988	14.2454	-1.79838e-07	2.44727e+06
2	1	0	1	0	642.396	-0.697552	-0.697413	-6.77267e-05	11	-0.00014071	42	23.8988	0.544	4.72335e-08	1.02975e+07
2	0	0	1	0	643.076	-0.731552	-0.731424	-0.000333888	11	-0.00014102	42	23.8988	1.224	2.44214e-07	2.19062e+06
2	0	0	1	0	643.756	-0.765552	-0.76543	-0.000576959	11	-0.000141511	42	23.8988	1.904	4.41622e-07	1.32666e+06
2	0	0	1	0	644.436	-0.799552	-0.799433	-0.000814688	11	-0.000142162	42	23.8988	2.584	6.51289e-07	981274
2	0	0	1	0	645.116	-0.833552	-0.833425	-0.00102421	11	-0.000142969	42	23.8988	3.264	8.53599e-07	813726
2	0	0	1	0	645.796	-0.867552	-0.867432	-0.00125792	11	-0.000143935	42	23.8988	3.944	1.09116e-06	689576
2	0	0	1	0	646.476	-0.901552	-0.901452	-0.00145587	11	-0.000145063	42	23.8988	4.624	1.3124e-06	619185
2	0	0	1	0	647.156	-0.935552	-0.935437	-0.00168302	11	-0.000146363	42	23.8988	5.304	1.57436e-06	555809
2	0	0	1	0	647.836	-0.969552	-0.969393	-0.00190352	11	-0.000147843	42	23.8988	5.984	1.84526e-06	509264
2	0	0	1	0	648.543	-1.00491	-1.00474	-0.00227945	11	-0.0001496	41	23.8988	6.6912	2.29025e-06	440779
2	0	0	1	0	649.223	-1.03891	-1.03875	-0.00256268	11	-0.000151485	41	23.8988	7.3712	2.66199e-06	405337
2	0	0	1	0	649.903	-1.07291	-1.07275	-0.0029208	11	-0.000153598	41	23.8988	8.0512	3.13329e-06	367280
2	0	0	1	0	650.583	-1.10691	-1.10674	-0.00336701	11	-0.000155993	41	23.8988	8.7312	3.7264e-06	328702
2	0	0	1	0	651.263	-1.14091	-1.14073	-0.00394281	11	-0.000158752	41	23.8988	9.4112	4.4977e-06	289320
2	0	0	1	0	651.943	-1.17491	-1.17476	-0.0045819	11	-0.000161935	41	23.8988	10.0912	5.38263e-06	256391
2	0	0	1	0	652.623	-1.20891	-1.20873	-0.00534503	11	-0.000165591	41	23.8988	10.7712	6.46069e-06	226140
2	0	0	1	0	653.303	-1.24291	-1.24275	-0.00655297	11	-0.00016991	41	23.8988	11.4512	8.14371e-06	189647
2	0	0	1	0	653.983	-1.27691	-1.27673	-0.00809167	11	-0.00017516	41	23.8988	12.1312	1.03309e-05	157784
2	0	0	1	0	654.663	-1.31091	-1.31073	-0.00990938	11	-0.000181572	41	23.8988	12.8112	1.29885e-05	132271
2	0	0	1	0	655.343	-1.34491	-1.34472	-0.0120341	11	-0.000189361	41	23.8988	13.4912	1.61825e-05	111743
2	0	0	1	0	655.842	-1.3699	-1.36977	-0.0139918	11	-0.00019609	41	23.8988	13.9898	1.91656e-05	97898.2