File: 1.5UC-SRO-BTO-SRO-NSTO(3rd_sample_new)-1MKOH_GraphiteCE_SCE_REF_CV_upvsdown_04_CV_C01.mpt
EC-Lab ASCII FILE
Nb header lines : 59

Cyclic Voltammetry

Run on channel : 1 (SN 2826)
User :
Electrode connection : standard
Potential control : Ewe
Ewe ctrl range : min = -10.00 V, max = 10.00 V
Ewe,I filtering : 50 kHz
Safety Limits :
	Do not start on E overload
Channel : Grounded
Acquisition started on : 01/01/2023 19:45:55.008
Loaded Setting File :  NONE
Saved on :
	File : 1.5UC-SRO-BTO-SRO-NSTO(3rd_sample_new)-1MKOH_GraphiteCE_SCE_REF_CV_upvsdown_04_CV_C01.mpr
	Directory : C:\Data\Pedram\01012023\
	Host : 192.109.209.127
Device : VSP-300 (SN 0229)
Address : 192.109.209.128
EC-LAB for windows v11.42 (software)
Internet server v11.40 (firmware)
Command interpretor v11.42 (firmware)
Electrode material :
Initial state :
Electrolyte :
Comments :
Cable : standard
Electrode surface area : 0.001 cm²
Characteristic mass : 0.001 g
Equivalent Weight : 0.000 g/eq.
Density : 0.000 g/cm3
Volume (V) : 0.001 cm³
Cycle Definition : Charge/Discharge alternance
Ei (V)              -0.800
vs.                 Ref
dE/dt               50.000
dE/dt unit          mV/s
E1 (V)              -0.600
vs.                 Ref
Step percent        50
N                   10
E range min (V)     -10.000
E range max (V)     10.000
I Range             Auto
I Range min         Unset
I Range max         Unset
I Range init        Unset
Bandwidth           8
E2 (V)              -1.370
vs.                 Ref
nc cycles           10
Reverse Scan        0
Ef (V)              0.000
vs.                 Eoc

mode	ox/red	error	control changes	counter inc.	time/s	control/V	Ewe/V	<I>/mA	cycle number	(Q-Qo)/C	I Range	Rcmp/Ohm	step time/s	Pwe/W	Rwe/Ohm
2	1	0	1	0	18.5122	-0.795659	-0.795447	0.0153533	1	0.0000000E+000	40	19.5487	0.000000000000000E+000	-1.22127e-05	51809.6
2	0	0	1	0	19.1156	-0.765487	-0.765305	-0.000169816	1	9.44675e-07	41	19.5487	0.5666	1.29961e-07	4.50668e+06
2	0	0	1	0	19.7486	-0.733836	-0.733618	-0.000151783	1	9.53829e-07	42	19.5487	0.2332	1.11351e-07	4.83334e+06
2	0	0	1	0	20.3484	-0.703848	-0.703614	2.43221e-05	1	1.04191e-06	42	19.5487	0.833	-1.71134e-08	2.8929e+07
2	1	0	1	0	20.9482	-0.673856	-0.67361	0.000197719	1	1.23014e-06	42	19.5487	1.4328	-1.33185e-07	3.40691e+06
2	1	0	1	0	21.5479	-0.643873	-0.643652	0.0003339	1	1.50778e-06	42	19.5487	2.0325	-2.14916e-07	1.92768e+06
2	1	0	1	0	22.1476	-0.613887	-0.613641	0.000463618	1	1.86018e-06	42	19.5487	2.6322	-2.84495e-07	1.32359e+06
2	0	0	1	0	22.6024	-0.609032	-0.608865	-0.000225226	1	2.0041e-06	42	19.5487	0.136	1.37132e-07	2.70335e+06
2	0	0	1	0	23.2144	-0.639632	-0.639463	-0.000716069	1	1.57545e-06	42	19.5487	0.748	4.579e-07	893018
2	0	0	1	0	23.8264	-0.670232	-0.670088	-0.000969921	1	9.29932e-07	42	19.5487	1.36	6.49932e-07	690869
2	0	0	1	0	24.4384	-0.700832	-0.70071	-0.00119795	1	1.2973e-07	42	19.5487	1.972	8.39415e-07	584924
2	0	0	1	0	25.0504	-0.731432	-0.731314	-0.00142065	1	-8.12037e-07	42	19.5487	2.584	1.03894e-06	514774
2	0	0	1	0	25.6624	-0.762032	-0.761913	-0.00166811	1	-1.89979e-06	42	19.5487	3.196	1.27096e-06	456751
2	0	0	1	0	26.2744	-0.792632	-0.792491	-0.00193215	1	-3.1474e-06	42	19.5487	3.808	1.53121e-06	410160
2	0	0	1	0	26.8864	-0.823232	-0.823121	-0.00224853	1	-4.57777e-06	42	19.5487	4.42	1.85081e-06	366071
2	0	0	1	0	27.4984	-0.853832	-0.853704	-0.00260731	1	-6.21997e-06	42	19.5487	5.032	2.22587e-06	327428
2	0	0	1	0	28.1104	-0.884432	-0.884314	-0.00302639	1	-8.11508e-06	42	19.5487	5.644	2.67628e-06	292201
2	0	0	1	0	28.7224	-0.915032	-0.914928	-0.00354925	1	-1.03176e-05	42	19.5487	6.256	3.24731e-06	257781
2	0	0	1	0	29.3344	-0.945632	-0.945522	-0.00419715	1	-1.28944e-05	42	19.5487	6.868	3.9685e-06	225277
2	0	0	1	0	29.9736	-0.977592	-0.977398	-0.00513349	1	-1.6084e-05	41	19.5487	7.5072	5.01746e-06	190396
2	0	0	1	0	30.5856	-1.00819	-1.00803	-0.00614078	1	-1.97208e-05	41	19.5487	8.1192	6.19009e-06	164153
2	0	0	1	0	31.1976	-1.03879	-1.03863	-0.00724234	1	-2.40139e-05	41	19.5487	8.7312	7.52209e-06	143410
2	0	0	1	0	31.8096	-1.06939	-1.06924	-0.00837148	1	-2.90016e-05	41	19.5487	9.3432	8.95115e-06	127724
2	0	0	1	0	32.4216	-1.09999	-1.09984	-0.00941875	1	-3.46614e-05	41	19.5487	9.9552	1.03591e-05	116772
2	0	0	1	0	33.0336	-1.13059	-1.13042	-0.0104759	1	-4.09647e-05	41	19.5487	10.5672	1.18422e-05	107907
2	0	0	1	0	33.6456	-1.16119	-1.16104	-0.0116111	1	-4.79499e-05	41	19.5487	11.1792	1.34809e-05	99993.8
2	0	0	1	0	34.2576	-1.19179	-1.19163	-0.012774	1	-5.56717e-05	41	19.5487	11.7912	1.52219e-05	93285.6
2	0	0	1	0	34.8696	-1.22239	-1.22223	-0.0139828	1	-6.41291e-05	41	19.5487	12.4032	1.70902e-05	87409.9
2	0	0	1	0	35.4816	-1.25299	-1.25283	-0.0152891	1	-7.33663e-05	41	19.5487	13.0152	1.91546e-05	81942.8
2	0	0	1	0	36.0936	-1.28359	-1.28343	-0.0165641	1	-8.34081e-05	41	19.5487	13.6272	2.12588e-05	77482.4
2	0	0	1	0	36.7056	-1.31419	-1.314	-0.0177478	1	-9.42033e-05	41	19.5487	14.2392	2.33207e-05	74037.4
2	0	0	1	0	37.3176	-1.34479	-1.34463	-0.0191209	1	-0.000105783	41	19.5487	14.8512	2.57106e-05	70322.3
2	0	0	1	1	37.8254	-1.36982	-1.36969	-0.0205863	1	-0.000116102	41	19.5487	15.359	2.81968e-05	66533.8
2	0	0	1	1	38.4068	-1.34075	-1.34057	-0.0137439	1	-0.000125297	41	19.5487	15.9404	1.84247e-05	97539.2
2	0	0	1	1	39.0188	-1.31015	-1.30996	-0.010312	1	-0.000132296	41	19.5487	16.5524	1.35083e-05	127034
2	0	0	1	1	39.6308	-1.27955	-1.27937	-0.0079656	1	-0.000137583	41	19.5487	17.1644	1.0191e-05	160612
2	0	0	1	1	40.2428	-1.24895	-1.24878	-0.00611926	1	-0.000141605	41	19.5487	17.7764	7.64161e-06	204074
2	0	0	1	1	40.8548	-1.21835	-1.21818	-0.00460354	1	-0.000144603	41	19.5487	18.3884	5.60793e-06	264618
2	0	0	1	1	41.4668	-1.18775	-1.18757	-0.00333104	1	-0.000146745	41	19.5487	19.0004	3.95585e-06	356518
2	0	0	1	1	42.0788	-1.15715	-1.15698	-0.00227554	1	-0.000148183	41	19.5487	19.6124	2.63276e-06	508445
2	0	0	1	1	42.6908	-1.12655	-1.12638	-0.00143874	1	-0.000149054	41	19.5487	20.2244	1.62056e-06	782892
2	0	0	1	1	43.3028	-1.09595	-1.0958	-0.000771446	1	-0.000149482	41	19.5487	20.8364	8.45352e-07	1.42045e+06
2	1	0	1	1	43.9148	-1.06535	-1.06518	-0.000245446	1	-0.000149561	41	19.5487	0.068	2.61443e-07	4.33976e+06
2	1	0	1	1	44.5268	-1.03475	-1.03459	0.000185838	1	-0.000149361	41	19.5487	0.68	-1.92267e-07	5.56717e+06
2	1	0	1	1	45.1388	-1.00415	-1.00397	0.000575564	1	-0.000148933	41	19.5487	1.292	-5.7785e-07	1.74433e+06
2	1	0	1	1	45.7508	-0.973549	-0.973359	0.00083355	1	-0.000148314	41	19.5487	1.904	-8.11343e-07	1.16773e+06
2	1	0	1	1	46.3628	-0.942949	-0.942781	0.00106775	1	-0.000147542	41	19.5487	2.516	-1.00665e-06	882961
2	1	0	1	1	46.9748	-0.912349	-0.912188	0.00126083	1	-0.000146645	41	19.5487	3.128	-1.15012e-06	723480
2	1	0	1	1	47.5868	-0.881749	-0.881575	0.00141063	1	-0.000145657	41	19.5487	3.74	-1.24358e-06	624951
2	1	0	1	1	48.1988	-0.851149	-0.850977	0.00149849	1	-0.000144605	41	19.5487	4.352	-1.27518e-06	567890
2	1	0	1	1	48.8108	-0.820549	-0.820369	0.00158331	1	-0.000143509	41	19.5487	4.964	-1.2989e-06	518137
2	1	0	1	1	49.3344	-0.794369	-0.794199	0.00160128	2	-0.000142547	41	19.5487	5.4876	-1.27173e-06	495979
2	1	0	1	1	49.9464	-0.763769	-0.763617	0.00163565	2	-0.000141405	41	19.5487	6.0996	-1.24901e-06	466858
2	1	0	1	1	50.5584	-0.733169	-0.733009	0.00164784	2	-0.000140251	41	19.5487	6.7116	-1.20788e-06	444832
2	1	0	1	1	51.1704	-0.702569	-0.702391	0.00166271	2	-0.000139096	41	19.5487	7.3236	-1.16787e-06	422437
2	1	0	1	1	51.7824	-0.671969	-0.67178	0.00167699	2	-0.000137947	41	19.5487	7.9356	-1.12657e-06	400587
2	1	0	1	1	52.3944	-0.641369	-0.641183	0.00163271	2	-0.000136808	41	19.5487	8.5476	-1.04687e-06	392710
2	1	0	1	1	53.0064	-0.610769	-0.610571	0.00161069	2	-0.000135683	41	19.5487	9.1596	-9.83443e-07	379073
2	1	0	1	1	53.5312	-0.615662	-0.615503	0.000562336	2	-0.000135083	42	19.5487	9.6844	-3.46119e-07	1.09455e+06
2	1	0	1	1	54.1432	-0.646262	-0.646109	7.00928e-05	2	-0.000135029	42	19.5487	0.136	-4.52876e-08	9.2179e+06
2	0	0	1	1	54.7552	-0.676862	-0.676722	-0.000227905	2	-0.000135216	42	19.5487	0.748	1.54228e-07	2.96932e+06
2	0	0	1	1	55.3672	-0.707462	-0.707328	-0.00047518	2	-0.000135574	42	19.5487	1.36	3.36108e-07	1.48855e+06
2	0	0	1	1	55.9792	-0.738062	-0.737949	-0.000711046	2	-0.000136081	42	19.5487	1.972	5.24715e-07	1.03784e+06
2	0	0	1	1	56.5912	-0.768662	-0.768551	-0.000928581	2	-0.000136728	42	19.5487	2.584	7.13662e-07	827661
2	0	0	1	1	57.2032	-0.799262	-0.799129	-0.00117156	2	-0.000137514	42	19.5487	3.196	9.36227e-07	682107
2	0	0	1	1	57.8152	-0.829862	-0.829743	-0.00139342	2	-0.000138449	42	19.5487	3.808	1.15618e-06	595474
2	0	0	1	1	58.4272	-0.860462	-0.860347	-0.0016387	2	-0.000139545	42	19.5487	4.42	1.40985e-06	525019
2	0	0	1	1	59.0392	-0.891062	-0.890931	-0.00193586	2	-0.000140824	42	19.5487	5.032	1.72472e-06	460225
2	0	0	1	1	59.6512	-0.921662	-0.921546	-0.00228271	2	-0.000142311	42	19.5487	5.644	2.10362e-06	403707
2	0	0	1	1	60.2632	-0.952262	-0.952118	-0.00266936	2	-0.000144039	42	19.5487	6.256	2.54155e-06	356684
2	0	0	1	1	60.8752	-0.982862	-0.982711	-0.0031129	2	-0.000146043	42	19.5487	6.868	3.05908e-06	315690
2	0	0	1	1	61.5042	-1.01431	-1.01417	-0.00364031	2	-0.000148416	42	19.5487	7.497	3.69189e-06	278594
2	0	0	1	1	62.1332	-1.04576	-1.04559	-0.00427815	2	-0.000151124	41	19.5487	8.126	4.4732e-06	244404
2	0	0	1	1	62.7452	-1.07636	-1.0762	-0.00478882	2	-0.000154103	41	19.5487	8.738	5.15373e-06	224732
2	0	0	1	1	63.3572	-1.10696	-1.1068	-0.00543569	2	-0.000157457	41	19.5487	9.35	6.01622e-06	203617
2	0	0	1	1	63.9692	-1.13756	-1.13738	-0.00626534	2	-0.000161271	41	19.5487	9.962	7.12609e-06	181536
2	0	0	1	1	64.5812	-1.16816	-1.16799	-0.00722693	2	-0.000165647	41	19.5487	10.574	8.44096e-06	161616
2	0	0	1	1	65.1932	-1.19876	-1.19858	-0.0082712	2	-0.000170646	41	19.5487	11.186	9.91366e-06	144910
2	0	0	1	1	65.8052	-1.22936	-1.22918	-0.0094836	2	-0.000176336	41	19.5487	11.798	1.1657e-05	129611
2	0	0	1	1	66.4172	-1.25996	-1.2598	-0.0108721	2	-0.00018283	41	19.5487	12.41	1.36967e-05	115875
2	0	0	1	1	67.0292	-1.29056	-1.29037	-0.0122086	2	-0.000190166	41	19.5487	13.022	1.57537e-05	105693
2	0	0	1	1	67.6412	-1.32116	-1.32097	-0.0135643	2	-0.000198328	41	19.5487	13.634	1.7918e-05	97385.3
2	0	0	1	1	68.2532	-1.35176	-1.35157	-0.0151477	2	-0.000207398	41	19.5487	14.246	2.04732e-05	89226.2
2	0	0	0	0	68.7906	-1.3612	-1.36101	-0.0134367	2	-0.000215723	41	19.5487	14.7834	1.82876e-05	101290
2	0	0	0	0	69.4026	-1.3306	-1.33041	-0.00920204	2	-0.000222155	41	19.5487	15.3954	1.22425e-05	144578
2	0	0	0	0	70.0146	-1.3	-1.29979	-0.0067329	2	-0.000226668	41	19.5487	16.0074	8.75136e-06	193051
2	0	0	0	0	70.6262	-1.26942	-1.26925	-0.00496099	2	-0.000229923	41	19.5487	16.619	6.29675e-06	255847
2	0	0	0	0	71.2382	-1.23882	-1.23865	-0.0035366	2	-0.000232228	41	19.5487	17.231	4.38062e-06	350238
2	0	0	0	0	71.8502	-1.20822	-1.20805	-0.0023598	2	-0.000233747	41	19.5487	17.843	2.85076e-06	511928
2	0	0	0	0	72.4622	-1.17762	-1.17743	-0.00137919	2	-0.000234619	41	19.5487	18.455	1.62391e-06	853715
2	0	0	0	0	73.0742	-1.14702	-1.14682	-0.000616855	2	-0.000234974	41	19.5487	19.067	7.07424e-07	1.85915e+06
2	0	0	0	0	73.6862	-1.11642	-1.11624	2.99068e-06	2	-0.000234929	41	19.5487	0.34	-3.33831e-09	3.73239e+08
2	1	0	0	0	74.2982	-1.08582	-1.08563	0.000436446	2	-0.000234571	41	19.5487	0.952	-4.73818e-07	2.48742e+06
2	1	0	0	0	74.9102	-1.05522	-1.05502	0.0007765	2	-0.000233975	41	19.5487	1.564	-8.19223e-07	1.35869e+06
2	1	0	0	0	75.5222	-1.02462	-1.02443	0.00106395	2	-0.00023319	41	19.5487	2.176	-1.08994e-06	962862
2	1	0	0	0	76.1342	-0.994019	-0.993837	0.0012969	2	-0.000232255	41	19.5487	2.788	-1.28891e-06	766317
2	1	0	0	0	76.7462	-0.963419	-0.963227	0.00149797	2	-0.000231202	41	19.5487	3.4	-1.44289e-06	643021
2	1	0	0	0	77.3582	-0.932819	-0.932618	0.00166244	2	-0.000230055	41	19.5487	4.012	-1.55042e-06	560994
2	1	0	0	0	77.9702	-0.902219	-0.902042	0.00178399	2	-0.000228841	41	19.5487	4.624	-1.60924e-06	505631
2	1	0	0	0	78.5822	-0.871619	-0.871426	0.00181525	2	-0.000227579	41	19.5487	5.236	-1.58185e-06	480059
2	1	0	0	0	79.1942	-0.841019	-0.84083	0.00186128	2	-0.000226287	41	19.5487	5.848	-1.56502e-06	451748
2	1	0	0	0	79.8062	-0.810419	-0.810235	0.00188326	2	-0.00022498	41	19.5487	6.46	-1.52588e-06	430230
2	1	0	0	0	80.3298	-0.784239	-0.784052	0.00191052	3	-0.000223858	41	19.5487	6.9836	-1.49794e-06	410387
2	1	0	0	0	80.9418	-0.753639	-0.75346	0.00191165	3	-0.000222551	41	19.5487	7.5956	-1.44035e-06	394140
2	1	0	0	0	81.5538	-0.723039	-0.722864	0.00187122	3	-0.000221253	41	19.5487	8.2076	-1.35263e-06	386307
2	1	0	0	0	82.1658	-0.692439	-0.692267	0.00184765	3	-0.000219967	41	19.5487	8.8196	-1.27907e-06	374674
2	1	0	0	0	82.7778	-0.661839	-0.661652	0.0018285	3	-0.0002187	41	19.5487	9.4316	-1.20983e-06	361855
2	1	0	0	0	83.3898	-0.631239	-0.631017	0.0017936	3	-0.000217455	41	19.5487	10.0436	-1.13179e-06	351816
2	1	0	0	0	84.0018	-0.600639	-0.600426	0.0017739	3	-0.000216227	42	19.5487	10.6556	-1.0651e-06	338477
2	1	0	0	0	84.5266	-0.625862	-0.625686	0.000503084	3	-0.00021587	42	19.5487	11.1804	-3.14772e-07	1.2437e+06
2	1	0	0	0	85.1386	-0.656462	-0.65632	9.04617e-05	3	-0.000215831	42	19.5487	0.136	-5.93718e-08	7.25522e+06
2	0	0	0	0	85.7506	-0.687062	-0.686978	-0.00019086	3	-0.000216	42	19.5487	0.748	1.31117e-07	3.59939e+06
2	0	0	0	0	86.3626	-0.717662	-0.71752	-0.000444669	3	-0.000216329	42	19.5487	1.36	3.19059e-07	1.61361e+06
2	0	0	0	0	86.9746	-0.748262	-0.748142	-0.000656851	3	-0.000216799	42	19.5487	1.972	4.91417e-07	1.13898e+06
2	0	0	0	0	87.5866	-0.778862	-0.778735	-0.000841674	3	-0.000217402	42	19.5487	2.584	6.55441e-07	925222
2	0	0	0	0	88.1986	-0.809462	-0.809325	-0.00104972	3	-0.000218143	42	19.5487	3.196	8.49566e-07	770991
2	0	0	0	0	88.8106	-0.840062	-0.839952	-0.00127889	3	-0.000219026	42	19.5487	3.808	1.0742e-06	656784
2	0	0	0	0	89.4226	-0.870662	-0.870541	-0.00153172	3	-0.000220062	42	19.5487	4.42	1.33342e-06	568342
2	0	0	0	0	90.0346	-0.901262	-0.901134	-0.00180783	3	-0.000221269	42	19.5487	5.032	1.6291e-06	498463
2	0	0	0	0	90.6466	-0.931862	-0.931747	-0.00212643	3	-0.000222669	42	19.5487	5.644	1.98129e-06	438175
2	0	0	0	0	91.2586	-0.962462	-0.962324	-0.00245927	3	-0.000224287	42	19.5487	6.256	2.36661e-06	391305
2	0	0	0	0	91.8706	-0.993062	-0.992939	-0.00279976	3	-0.000226145	42	19.5487	6.868	2.77999e-06	354651
2	0	0	0	0	92.5098	-1.02502	-1.02486	-0.00334271	3	-0.000228366	41	19.5487	7.5072	3.4258e-06	306595
2	0	0	0	0	93.1218	-1.05562	-1.05546	-0.00378478	3	-0.000230765	41	19.5487	8.1192	3.9947e-06	278870
2	0	0	0	0	93.7338	-1.08622	-1.08608	-0.00431707	3	-0.000233467	41	19.5487	8.7312	4.68867e-06	251577
2	0	0	1	0	94.3456	-1.11681	-1.11666	-0.00496453	3	-0.00023653	41	19.5487	9.343	5.54367e-06	224927
2	0	0	1	0	94.9576	-1.14741	-1.14726	-0.00577567	3	-0.000240044	41	19.5487	9.955	6.62619e-06	198636
2	0	0	1	0	95.5696	-1.17801	-1.17786	-0.00667526	3	-0.000244087	41	19.5487	10.567	7.86254e-06	176452
2	0	0	1	0	96.1816	-1.20861	-1.20845	-0.007659	3	-0.000248705	41	19.5487	11.179	9.25552e-06	157782
2	0	0	1	0	96.7936	-1.23921	-1.23906	-0.00885153	3	-0.000254003	41	19.5487	11.791	1.09676e-05	139983
2	0	0	1	0	97.4056	-1.26981	-1.26964	-0.0101218	3	-0.000260092	41	19.5487	12.403	1.28511e-05	125436
2	0	0	1	0	98.0176	-1.30041	-1.30022	-0.011382	3	-0.000266975	41	19.5487	13.015	1.47991e-05	114235
2	0	0	1	0	98.6296	-1.33101	-1.33087	-0.0127215	3	-0.000274652	41	19.5487	13.627	1.69306e-05	104616
2	0	0	1	0	99.2416	-1.36161	-1.36146	-0.0143197	3	-0.000283241	41	19.5487	14.239	1.94956e-05	95076
2	0	0	1	1	99.7852	-1.35103	-1.35084	-0.0103399	3	-0.000290104	41	19.5487	14.7826	1.39675e-05	130644
2	0	0	1	1	100.397	-1.32043	-1.32023	-0.00712084	3	-0.000295034	41	19.5487	15.3946	9.40113e-06	185403
2	0	0	1	1	101.009	-1.28983	-1.28962	-0.00505815	3	-0.000298423	41	19.5487	16.0066	6.52309e-06	254959
2	0	0	1	1	101.621	-1.25923	-1.25905	-0.00351969	3	-0.000300752	41	19.5487	16.6186	4.43147e-06	357717
2	0	0	1	1	102.233	-1.22863	-1.22844	-0.00227367	3	-0.000302253	41	19.5487	17.2306	2.79305e-06	540289
2	0	0	1	1	102.845	-1.19803	-1.19787	-0.0012323	3	-0.00030307	41	19.5487	17.8426	1.47613e-06	972061
2	0	0	1	1	103.457	-1.16743	-1.16728	-0.00043969	3	-0.000303336	41	19.5487	18.4546	5.13239e-07	2.65477e+06
2	0	0	1	1	104.069	-1.13683	-1.13666	0.00014606	3	-0.000303176	41	19.5487	0.544	-1.66021e-07	7.78218e+06
2	1	0	1	1	104.681	-1.10623	-1.10608	0.000608985	3	-0.00030269	41	19.5487	1.156	-6.73587e-07	1.81627e+06
2	1	0	1	1	105.293	-1.07563	-1.07547	0.000980577	3	-0.00030196	41	19.5487	1.768	-1.05458e-06	1.09677e+06
2	1	0	0	1	105.905	-1.04504	-1.04489	0.00126321	3	-0.000301044	41	19.5487	2.3798	-1.31991e-06	827166
2	1	0	0	1	106.517	-1.01444	-1.01427	0.00149497	3	-0.000299987	41	19.5487	2.9918	-1.51631e-06	678455
2	1	0	0	1	107.129	-0.983839	-0.98367	0.00168821	3	-0.00029882	41	19.5487	3.6038	-1.66064e-06	582671
2	1	0	0	1	107.741	-0.953239	-0.953028	0.00181158	3	-0.00029757	41	19.5487	4.2158	-1.72649e-06	526074
2	1	0	0	1	108.353	-0.922639	-0.922475	0.00188847	3	-0.000296257	41	19.5487	4.8278	-1.74207e-06	488477
2	1	0	0	1	108.965	-0.892039	-0.891852	0.00196426	3	-0.0002949	41	19.5487	5.4398	-1.75183e-06	454040
2	1	0	0	1	109.577	-0.861439	-0.861259	0.00200449	3	-0.000293519	41	19.5487	6.0518	-1.72639e-06	429664
2	1	0	0	1	110.189	-0.830839	-0.830669	0.00202203	3	-0.00029213	41	19.5487	6.6638	-1.67964e-06	410810
2	1	0	0	1	110.787	-0.800919	-0.80074	0.0020327	3	-0.000290774	41	19.5487	7.2622	-1.62766e-06	393930
2	1	0	0	1	111.325	-0.774059	-0.773887	0.00198889	4	-0.000289565	41	19.5487	7.7994	-1.53917e-06	389106
2	1	0	0	1	111.937	-0.743459	-0.743286	0.0019771	4	-0.000288199	41	19.5487	8.4114	-1.46955e-06	375949
2	1	0	0	1	112.549	-0.712859	-0.712702	0.00195572	4	-0.00028685	41	19.5487	9.0234	-1.39385e-06	364419
2	1	0	0	1	113.161	-0.682259	-0.682097	0.00192929	4	-0.000285524	41	19.5487	9.6354	-1.31596e-06	353549
2	1	0	0	1	113.773	-0.651659	-0.651487	0.00189824	4	-0.000284224	41	19.5487	10.2474	-1.23668e-06	343206
2	1	0	0	1	114.385	-0.621059	-0.620864	0.00184303	4	-0.000282948	41	19.5487	10.8594	-1.14427e-06	336872
2	1	0	0	1	114.909	-0.605462	-0.605272	0.00115321	4	-0.000281965	41	19.5487	11.3842	-6.98004e-07	524859
2	1	0	0	1	115.521	-0.636062	-0.635862	0.00037678	4	-0.000281682	41	19.5487	11.9962	-2.3958e-07	1.68762e+06
2	1	0	0	1	116.133	-0.666662	-0.666472	1.68427e-05	4	-0.000281696	41	19.5487	0.272	-1.12252e-08	3.95703e+07
2	0	0	0	1	116.745	-0.697262	-0.697095	-0.000231501	4	-0.000281898	41	19.5487	0.884	1.61378e-07	3.0112e+06
2	0	0	0	1	117.391	-0.729562	-0.729448	-0.00045641	4	-0.000282269	42	19.5487	1.53	3.32927e-07	1.59823e+06
2	0	0	0	1	118.003	-0.760162	-0.760038	-0.000665865	4	-0.000282761	42	19.5487	2.142	5.06083e-07	1.14143e+06
2	0	0	0	1	118.615	-0.790762	-0.79064	-0.000863255	4	-0.000283383	42	19.5487	2.754	6.82524e-07	915882
2	0	0	0	1	119.227	-0.821362	-0.821244	-0.00107642	4	-0.000284136	42	19.5487	3.366	8.84003e-07	762940
2	0	0	0	1	119.839	-0.851962	-0.85184	-0.00129978	4	-0.000285028	42	19.5487	3.978	1.1072e-06	655375
2	0	0	0	1	120.451	-0.882562	-0.882467	-0.00154431	4	-0.00028607	42	19.5487	4.59	1.3628e-06	571431
2	0	0	0	1	121.063	-0.913162	-0.913046	-0.00180562	4	-0.000287278	42	19.5487	5.202	1.64861e-06	505669
2	0	0	0	1	121.675	-0.943762	-0.94361	-0.0020712	4	-0.000288671	42	19.5487	5.814	1.9544e-06	455587
2	0	0	0	1	122.287	-0.974362	-0.97422	-0.00238327	4	-0.000290271	42	19.5487	6.426	2.32183e-06	408774
2	0	0	0	1	122.927	-1.00632	-1.00614	-0.00284737	4	-0.000292185	41	19.5487	7.0652	2.86485e-06	353357
2	0	0	0	1	123.539	-1.03692	-1.03676	-0.0032248	4	-0.000294252	41	19.5487	7.6772	3.34335e-06	321496
2	0	0	0	1	124.15	-1.0675	-1.06732	-0.00366007	4	-0.000296572	41	19.5487	8.2888	3.90648e-06	291613
2	0	0	0	1	124.762	-1.0981	-1.09795	-0.00420766	4	-0.000299191	41	19.5487	8.9008	4.6198e-06	260940
2	0	0	0	1	125.374	-1.1287	-1.12852	-0.00486872	4	-0.000302176	41	19.5487	9.5128	5.49444e-06	231790
2	0	0	0	1	125.986	-1.1593	-1.15915	-0.00560792	4	-0.000305618	41	19.5487	10.1248	6.50041e-06	206698
2	0	0	0	1	126.598	-1.1899	-1.18975	-0.00646233	4	-0.000309571	41	19.5487	10.7368	7.68852e-06	184105
2	0	0	0	1	127.21	-1.2205	-1.22033	-0.00748221	4	-0.000314096	41	19.5487	11.3488	9.13079e-06	163098
2	0	0	0	1	127.822	-1.2511	-1.25095	-0.00873589	4	-0.000319326	41	19.5487	11.9608	1.09281e-05	143196
2	0	0	0	1	128.434	-1.2817	-1.28154	-0.00998968	4	-0.000325339	41	19.5487	12.5728	1.28022e-05	128287
2	0	0	0	1	129.046	-1.3123	-1.31212	-0.0111889	4	-0.000332104	41	19.5487	13.1848	1.46811e-05	117270
2	0	0	0	1	129.658	-1.3429	-1.34271	-0.012538	4	-0.000339661	41	19.5487	13.7968	1.68349e-05	107092
2	0	0	1	0	130.198	-1.36991	-1.36975	-0.0140903	4	-0.00034711	41	19.5487	14.3368	1.93002e-05	97212
2	0	0	1	0	130.78	-1.34084	-1.34067	-0.00822673	4	-0.000352848	41	19.5487	14.9182	1.10293e-05	162965
2	0	0	1	0	131.392	-1.31024	-1.31003	-0.00557478	4	-0.000356727	41	19.5487	15.5302	7.30315e-06	234993
2	0	0	1	0	132.004	-1.27964	-1.27949	-0.00382024	4	-0.000359307	41	19.5487	16.1422	4.88795e-06	334923
2	0	0	1	0	132.616	-1.24904	-1.24886	-0.00249177	4	-0.000360955	41	19.5487	16.7542	3.11188e-06	501196
2	0	0	1	0	133.228	-1.21844	-1.21827	-0.00138169	4	-0.00036186	41	19.5487	17.3662	1.68327e-06	881722
2	0	0	1	0	133.84	-1.18784	-1.18767	-0.0004811	4	-0.000362153	41	19.5487	17.9782	5.71385e-07	2.46865e+06
2	1	0	1	0	134.452	-1.15724	-1.15708	0.000207517	4	-0.000361971	41	19.5487	0.476	-2.40113e-07	5.57583e+06
2	1	0	1	0	135.064	-1.12664	-1.12646	0.00072294	4	-0.000361431	41	19.5487	1.088	-8.14365e-07	1.55817e+06
2	1	0	1	0	135.676	-1.09604	-1.09588	0.00111371	4	-0.000360627	41	19.5487	1.7	-1.22049e-06	983989
2	1	0	1	0	136.288	-1.06544	-1.06525	0.00141838	4	-0.000359628	41	19.5487	2.312	-1.51092e-06	751034
2	1	0	1	0	136.9	-1.03484	-1.03467	0.00163859	4	-0.000358487	41	19.5487	2.924	-1.69541e-06	631439
2	1	0	1	0	137.512	-1.00424	-1.00406	0.00177508	4	-0.000357237	41	19.5487	3.536	-1.78228e-06	565640
2	1	0	1	0	138.124	-0.973639	-0.973445	0.00191037	4	-0.000355905	41	19.5487	4.148	-1.85964e-06	509558
2	1	0	1	0	138.736	-0.943039	-0.942843	0.00200274	4	-0.000354515	41	19.5487	4.76	-1.88827e-06	470777
2	1	0	1	0	139.348	-0.912439	-0.91226	0.00207917	4	-0.000353087	41	19.5487	5.372	-1.89675e-06	438761
2	1	0	1	0	139.96	-0.881839	-0.881664	0.00211363	4	-0.000351638	41	19.5487	5.984	-1.86351e-06	417133
2	1	0	1	0	140.572	-0.851239	-0.851076	0.00213904	4	-0.000350184	41	19.5487	6.596	-1.82049e-06	397877
2	1	0	1	0	141.184	-0.820639	-0.82046	0.0021024	4	-0.000348737	41	19.5487	7.208	-1.72493e-06	390250
2	1	0	1	0	141.707	-0.794459	-0.794294	0.00207552	5	-0.000347507	41	19.5487	7.7316	-1.64857e-06	382697
2	1	0	1	0	142.319	-0.763859	-0.763693	0.00205654	5	-0.000346087	41	19.5487	8.3436	-1.57056e-06	371348
2	1	0	1	0	142.931	-0.733259	-0.733078	0.00204391	5	-0.00034469	41	19.5487	8.9556	-1.49835e-06	358664
2	1	0	1	0	143.543	-0.702659	-0.702483	0.00201289	5	-0.000343317	41	19.5487	9.5676	-1.41402e-06	348993
2	1	0	1	0	144.155	-0.672059	-0.671883	0.00193846	5	-0.000341971	41	19.5487	10.1796	-1.30242e-06	346606
2	1	0	1	0	144.767	-0.641459	-0.641256	0.00191405	5	-0.000340651	41	19.5487	10.7916	-1.2274e-06	335026
2	1	0	1	0	145.379	-0.610859	-0.610657	0.00187113	5	-0.000339359	41	19.5487	11.4036	-1.14262e-06	326357
2	1	0	1	0	145.904	-0.615662	-0.615488	0.000783067	5	-0.000338628	42	19.5487	11.9284	-4.81968e-07	785996
2	1	0	1	0	146.516	-0.646262	-0.646116	0.000276766	5	-0.000338449	42	19.5487	12.5404	-1.78823e-07	2.33452e+06
2	1	0	1	0	147.128	-0.676862	-0.676714	-3.03368e-05	5	-0.000338514	42	19.5487	0.476	2.05293e-08	2.23067e+07
2	0	0	1	0	147.74	-0.707462	-0.707342	-0.000274003	5	-0.000338749	42	19.5487	1.088	1.93814e-07	2.58151e+06
2	0	0	1	0	148.352	-0.738062	-0.737936	-0.000493685	5	-0.000339127	42	19.5487	1.7	3.64308e-07	1.49475e+06
2	0	0	1	0	148.964	-0.768662	-0.768547	-0.000693903	5	-0.000339637	42	19.5487	2.312	5.33296e-07	1.10757e+06
2	0	0	1	0	149.576	-0.799262	-0.799119	-0.000906557	5	-0.000340273	42	19.5487	2.924	7.24447e-07	881487
2	0	0	1	0	150.188	-0.829862	-0.829751	-0.00108848	5	-0.000341038	42	19.5487	3.536	9.03166e-07	762304
2	0	0	1	0	150.8	-0.860462	-0.860356	-0.00129914	5	-0.000341938	42	19.5487	4.148	1.11772e-06	662251
2	0	0	1	0	151.412	-0.891062	-0.890923	-0.00152161	5	-0.000342986	42	19.5487	4.76	1.35563e-06	585515
2	0	0	1	0	152.024	-0.921662	-0.921554	-0.00178218	5	-0.000344197	42	19.5487	5.372	1.64237e-06	517095
2	0	0	1	0	152.636	-0.952262	-0.952133	-0.00205267	5	-0.000345585	42	19.5487	5.984	1.95441e-06	463851
2	0	0	1	0	153.275	-0.984222	-0.984055	-0.00246024	5	-0.00034725	41	19.5487	6.6232	2.42101e-06	399983
2	0	0	1	0	153.887	-1.01482	-1.01465	-0.00279717	5	-0.000349048	41	19.5487	7.2352	2.83815e-06	362741
2	0	0	1	0	154.499	-1.04542	-1.04524	-0.00315238	5	-0.000351065	41	19.5487	7.8472	3.295e-06	331573
2	0	0	1	0	155.111	-1.07602	-1.07587	-0.00354857	5	-0.000353329	41	19.5487	8.4592	3.81779e-06	303184
2	0	0	1	0	155.723	-1.10662	-1.10646	-0.00406748	5	-0.000355892	41	19.5487	9.0712	4.5005e-06	272026
2	0	0	1	0	156.335	-1.13722	-1.13704	-0.00473518	5	-0.000358825	41	19.5487	9.6832	5.3841e-06	240127
2	0	0	1	0	156.947	-1.16782	-1.16766	-0.00550952	5	-0.00036221	41	19.5487	10.2952	6.43326e-06	211935
2	0	0	1	0	157.559	-1.19842	-1.19824	-0.00635166	5	-0.000366088	41	19.5487	10.9072	7.61082e-06	188650
2	0	0	1	0	158.171	-1.22902	-1.22885	-0.00742343	5	-0.000370546	41	19.5487	11.5192	9.12228e-06	165537
2	0	0	1	0	158.783	-1.25962	-1.25945	-0.00866647	5	-0.000375725	41	19.5487	12.1312	1.0915e-05	145325
2	0	0	1	0	159.395	-1.29022	-1.29002	-0.00985936	5	-0.000381665	41	19.5487	12.7432	1.27188e-05	130842
2	0	0	1	0	160.007	-1.32082	-1.32063	-0.0110313	5	-0.000388332	41	19.5487	13.3552	1.45683e-05	119717
2	0	0	1	0	160.619	-1.35142	-1.35124	-0.012364	5	-0.000395791	41	19.5487	13.9672	1.67068e-05	109288
2	0	0	0	1	161.162	-1.36126	-1.36109	-0.010674	5	-0.000402695	41	19.5487	14.5102	1.45283e-05	127515
2	0	0	0	1	161.774	-1.33066	-1.33046	-0.00666427	5	-0.000407501	41	19.5487	15.1222	8.86653e-06	199640
2	0	0	0	1	162.386	-1.30006	-1.29986	-0.0044414	5	-0.000410542	41	19.5487	15.7342	5.77321e-06	292669
2	0	0	0	1	162.998	-1.26946	-1.26927	-0.00287671	5	-0.000412466	41	19.5487	16.3462	3.65131e-06	441222
2	0	0	0	1	163.61	-1.23886	-1.23868	-0.0016338	5	-0.000413556	41	19.5487	16.9582	2.02374e-06	758158
2	0	0	0	1	164.222	-1.20826	-1.20805	-0.000623884	5	-0.000413971	41	19.5487	17.5702	7.53683e-07	1.93634e+06
2	1	0	0	1	164.834	-1.17766	-1.17747	0.000162934	5	-0.000413846	41	19.5487	0.408	-1.9185e-07	7.22668e+06
2	1	0	0	1	165.446	-1.14706	-1.14688	0.000769249	5	-0.000413313	41	19.5487	1.02	-8.82236e-07	1.49091e+06
2	1	0	0	1	166.058	-1.11646	-1.11627	0.00119919	5	-0.000412484	41	19.5487	1.632	-1.33863e-06	930853
2	1	0	0	1	166.67	-1.08586	-1.0857	0.00146152	5	-0.000411437	41	19.5487	2.244	-1.58677e-06	742857
2	1	0	0	1	167.282	-1.05526	-1.05508	0.00169981	5	-0.000410235	41	19.5487	2.856	-1.79343e-06	620701
2	1	0	0	1	167.894	-1.02466	-1.02447	0.00187973	5	-0.000408921	41	19.5487	3.468	-1.92574e-06	545011
2	1	0	0	1	168.506	-0.994059	-0.99385	0.00201327	5	-0.000407527	41	19.5487	4.08	-2.00089e-06	493650
2	1	0	0	1	169.118	-0.963459	-0.96327	0.00210504	5	-0.000406076	41	19.5487	4.692	-2.02773e-06	457601
2	1	0	0	1	169.73	-0.932859	-0.932669	0.00218109	5	-0.000404589	41	19.5487	5.304	-2.03424e-06	427616
2	1	0	0	1	170.342	-0.902259	-0.902094	0.00220183	5	-0.000403083	41	19.5487	5.916	-1.98626e-06	409701
2	1	0	0	1	170.954	-0.871659	-0.871472	0.0021966	5	-0.00040157	41	19.5487	6.528	-1.91427e-06	396737
2	1	0	0	1	171.566	-0.841059	-0.840889	0.00217454	5	-0.000400063	41	19.5487	7.14	-1.82854e-06	386698
2	1	0	0	1	172.178	-0.810459	-0.810255	0.00216827	5	-0.000398573	41	19.5487	7.752	-1.75685e-06	373688
2	1	0	0	1	172.702	-0.784279	-0.784091	0.00215207	6	-0.000397317	41	19.5487	8.2756	-1.68742e-06	364343
2	1	0	0	1	173.314	-0.753679	-0.753511	0.0020874	6	-0.000395873	41	19.5487	8.8876	-1.57288e-06	360980
2	1	0	0	1	173.926	-0.723079	-0.722894	0.00205157	6	-0.000394455	41	19.5487	9.4996	-1.48307e-06	352361
2	1	0	0	1	174.538	-0.692479	-0.692302	0.00201803	6	-0.000393065	41	19.5487	10.1116	-1.39709e-06	343059
2	1	0	0	1	175.15	-0.661879	-0.661685	0.00196908	6	-0.000391706	41	19.5487	10.7236	-1.30291e-06	336037
2	1	0	0	1	175.762	-0.631279	-0.631076	0.00193022	6	-0.000390376	41	19.5487	11.3356	-1.21812e-06	326945
2	1	0	0	1	176.36	-0.601359	-0.601151	0.00190912	6	-0.000389105	41	19.5487	11.934	-1.14767e-06	314883
2	1	0	1	1	176.768	-0.619352	-0.619163	0.000704878	6	-0.000388726	41	19.5487	12.3422	-4.36434e-07	878397
2	1	0	1	1	177.414	-0.651652	-0.651505	0.000211603	6	-0.00038857	42	19.5487	12.9882	-1.3786e-07	3.07891e+06
2	1	0	1	1	178.026	-0.682252	-0.682123	-5.87843e-05	6	-0.000388656	42	19.5487	0.544	4.00981e-08	1.16038e+07
2	0	0	1	1	178.638	-0.712852	-0.712714	-0.000300863	6	-0.000388908	42	19.5487	1.156	2.14429e-07	2.3689e+06
2	0	0	1	1	179.25	-0.743452	-0.743332	-0.00050581	6	-0.000389299	42	19.5487	1.768	3.75985e-07	1.46959e+06
2	0	0	1	1	179.862	-0.774052	-0.77392	-0.000705038	6	-0.00038982	42	19.5487	2.38	5.45643e-07	1.0977e+06
2	0	0	1	1	180.474	-0.804652	-0.804508	-0.000892731	6	-0.000390464	42	19.5487	2.992	7.18209e-07	901176
2	0	0	1	1	181.086	-0.835252	-0.835132	-0.00111364	6	-0.000391235	42	19.5487	3.604	9.30034e-07	749915
2	0	0	1	1	181.698	-0.865852	-0.86573	-0.00131247	6	-0.000392138	42	19.5487	4.216	1.13625e-06	659618
2	0	0	1	1	182.31	-0.896452	-0.896307	-0.00151359	6	-0.000393185	42	19.5487	4.828	1.35664e-06	592174
2	0	0	1	1	182.922	-0.927052	-0.926922	-0.00175298	6	-0.000394389	42	19.5487	5.44	1.62487e-06	528770
2	0	0	1	1	183.562	-0.959012	-0.958819	-0.00211471	6	-0.000395834	41	19.5487	6.0792	2.02762e-06	453404
2	0	0	1	1	184.174	-0.989612	-0.989429	-0.00240109	6	-0.000397405	41	19.5487	6.6912	2.37571e-06	412075
2	0	0	1	1	184.786	-1.02021	-1.02001	-0.00271349	6	-0.000399169	41	19.5487	7.3032	2.76779e-06	375903
2	0	0	1	1	185.398	-1.05081	-1.05064	-0.00308515	6	-0.000401144	41	19.5487	7.9152	3.24139e-06	340549
2	0	0	1	1	186.01	-1.08141	-1.08125	-0.00350178	6	-0.000403357	41	19.5487	8.5272	3.78628e-06	308770
2	0	0	1	1	186.622	-1.11201	-1.11186	-0.00397452	6	-0.000405864	41	19.5487	9.1392	4.41909e-06	279746
2	0	0	1	1	187.234	-1.14261	-1.14244	-0.00464557	6	-0.000408746	41	19.5487	9.7512	5.30729e-06	245921
2	0	0	1	1	187.846	-1.17321	-1.17305	-0.00539222	6	-0.00041207	41	19.5487	10.3632	6.32537e-06	217546
2	0	0	1	1	188.458	-1.20381	-1.20363	-0.00621473	6	-0.000415875	41	19.5487	10.9752	7.48026e-06	193674
2	0	0	1	1	189.07	-1.23441	-1.23422	-0.00729548	6	-0.000420269	41	19.5487	11.5872	9.00425e-06	169176
2	0	0	1	1	189.682	-1.26501	-1.26485	-0.00853756	6	-0.000425392	41	19.5487	12.1992	1.07988e-05	148152
2	0	0	1	1	190.294	-1.29561	-1.29543	-0.00969645	6	-0.000431258	41	19.5487	12.8112	1.2561e-05	133598
2	0	0	1	1	190.906	-1.32621	-1.32604	-0.0108792	6	-0.000437832	41	19.5487	13.4232	1.44263e-05	121888
2	0	0	1	1	191.518	-1.35681	-1.35662	-0.0122651	6	-0.000445195	41	19.5487	14.0352	1.66391e-05	110609
2	0	0	0	0	192.026	-1.35754	-1.35735	-0.00947999	6	-0.000451166	41	19.5487	14.5438	1.28677e-05	143181
2	0	0	0	0	192.638	-1.32694	-1.32675	-0.00587381	6	-0.000455415	41	19.5487	15.1558	7.79307e-06	225876
2	0	0	0	0	193.25	-1.29634	-1.29615	-0.00379214	6	-0.000458036	41	19.5487	15.7678	4.91519e-06	341800
2	0	0	0	0	193.862	-1.26574	-1.26556	-0.00234668	6	-0.000459608	41	19.5487	16.3798	2.96988e-06	539299
2	0	0	0	0	194.474	-1.23514	-1.23496	-0.00118093	6	-0.000460387	41	19.5487	16.9918	1.4584e-06	1.04575e+06
2	0	0	0	0	195.086	-1.20454	-1.20437	-0.000210019	6	-0.000460527	41	19.5487	0.136	2.52941e-07	5.73456e+06
2	1	0	0	0	195.698	-1.17394	-1.17377	0.000513043	6	-0.000460162	41	19.5487	0.748	-6.02194e-07	2.28786e+06
2	1	0	0	0	196.31	-1.14334	-1.14315	0.00104465	6	-0.000459424	41	19.5487	1.36	-1.1942e-06	1.09429e+06
2	1	0	0	0	196.922	-1.11274	-1.11256	0.00144338	6	-0.00045842	41	19.5487	1.972	-1.60584e-06	770799
2	1	0	0	0	197.534	-1.08214	-1.08197	0.00172487	6	-0.000457226	41	19.5487	2.584	-1.86626e-06	627278
2	1	0	0	0	198.146	-1.05154	-1.05136	0.00188958	6	-0.000455899	41	19.5487	3.196	-1.98663e-06	556398
2	1	0	0	0	198.758	-1.02094	-1.02076	0.00202931	6	-0.000454479	41	19.5487	3.808	-2.07144e-06	503011
2	1	0	0	0	199.37	-0.990339	-0.990148	0.00213335	6	-0.000452994	41	19.5487	4.42	-2.11233e-06	464129
2	1	0	0	0	199.982	-0.959739	-0.959559	0.00220812	6	-0.000451465	41	19.5487	5.032	-2.11882e-06	434559
2	1	0	0	0	200.594	-0.929159	-0.928979	0.00226135	6	-0.000449914	41	19.5487	5.6436	-2.10074e-06	410808
2	1	0	0	0	201.206	-0.898559	-0.898378	0.00230611	6	-0.000448354	41	19.5487	6.2556	-2.07175e-06	389565
2	1	0	0	0	201.818	-0.867959	-0.867782	0.00225594	6	-0.000446797	41	19.5487	6.8676	-1.95767e-06	384665
2	1	0	0	0	202.43	-0.837359	-0.837202	0.00222782	6	-0.000445254	41	19.5487	7.4796	-1.86514e-06	375793
2	1	0	0	0	203.042	-0.806759	-0.806558	0.00219975	6	-0.000443734	41	19.5487	8.0916	-1.77423e-06	366658
2	1	0	0	0	203.559	-0.780919	-0.780729	0.00219665	7	-0.000442472	41	19.5487	8.6084	-1.71499e-06	355418
2	1	0	0	0	204.171	-0.750319	-0.750145	0.00214638	7	-0.000441005	41	19.5487	9.2204	-1.6101e-06	349493
2	1	0	0	0	204.783	-0.719719	-0.719516	0.00208611	7	-0.000439569	41	19.5487	9.8324	-1.50099e-06	344908
2	1	0	0	0	205.395	-0.689119	-0.688943	0.00204396	7	-0.000438164	41	19.5487	10.4444	-1.40817e-06	337063
2	1	0	0	0	206.007	-0.658519	-0.658338	0.0019956	7	-0.00043679	41	19.5487	11.0564	-1.31378e-06	329894
2	1	0	0	0	206.618	-0.627959	-0.627755	0.00195486	7	-0.000435449	41	19.5487	11.6676	-1.22717e-06	321125
2	1	0	1	0	207.18	-0.600204	-0.599992	0.00191759	7	-0.000434243	41	19.5487	12.23	-1.15054e-06	312888
2	1	0	1	0	207.762	-0.629272	-0.629077	0.000543909	7	-0.00043383	41	19.5487	12.8114	-3.42161e-07	1.15659e+06
2	1	0	1	0	208.374	-0.659872	-0.659675	0.000154434	7	-0.000433761	41	19.5487	0.068	-1.01876e-07	4.27155e+06
2	0	0	1	0	208.986	-0.690472	-0.690304	-0.000123119	7	-0.000433894	41	19.5487	0.68	8.49893e-08	5.60682e+06
2	0	0	1	0	209.598	-0.721072	-0.720872	-0.000354934	7	-0.000434182	41	19.5487	1.292	2.55862e-07	2.031e+06
2	0	0	1	0	210.21	-0.751672	-0.751482	-0.00055468	7	-0.000434606	41	19.5487	1.904	4.16832e-07	1.3548e+06
2	0	0	1	0	210.822	-0.782272	-0.782086	-0.000781194	7	-0.000435154	41	19.5487	2.516	6.10961e-07	1.00114e+06
2	0	0	1	0	211.434	-0.812872	-0.812696	-0.000951202	7	-0.000435827	41	19.5487	3.128	7.73039e-07	854388
2	0	0	1	0	212.046	-0.843472	-0.843301	-0.00114396	7	-0.000436624	41	19.5487	3.74	9.64705e-07	737176
2	0	0	1	0	212.658	-0.874072	-0.873891	-0.00135987	7	-0.000437554	41	19.5487	4.352	1.18838e-06	642629
2	0	0	1	0	213.27	-0.904672	-0.904484	-0.00159884	7	-0.000438627	41	19.5487	4.964	1.44612e-06	565714
2	0	0	1	0	213.882	-0.935272	-0.935086	-0.00185047	7	-0.000439853	41	19.5487	5.576	1.73034e-06	505324
2	0	0	1	0	214.494	-0.965872	-0.965677	-0.00212434	7	-0.000441246	41	19.5487	6.188	2.05143e-06	454577
2	0	0	1	0	215.106	-0.996472	-0.996271	-0.00242385	7	-0.000442816	41	19.5487	6.8	2.41481e-06	411029
2	0	0	1	0	215.718	-1.02707	-1.02691	-0.00269683	7	-0.000444575	41	19.5487	7.412	2.76941e-06	380785
2	0	0	1	0	216.33	-1.05767	-1.05749	-0.00301696	7	-0.000446539	41	19.5487	8.024	3.19041e-06	350517
2	0	0	1	0	216.942	-1.08827	-1.08809	-0.00343689	7	-0.000448747	41	19.5487	8.636	3.73963e-06	316591
2	0	0	1	0	217.554	-1.11887	-1.11868	-0.00397877	7	-0.000451254	41	19.5487	9.248	4.45099e-06	281163
2	0	0	1	0	218.166	-1.14947	-1.14928	-0.00466865	7	-0.000454141	41	19.5487	9.86	5.36559e-06	246170
2	0	0	1	0	218.778	-1.18007	-1.17988	-0.0054123	7	-0.000457469	41	19.5487	10.472	6.38585e-06	217999
2	0	0	1	0	219.39	-1.21067	-1.21047	-0.00627903	7	-0.000461281	41	19.5487	11.084	7.60056e-06	192779
2	0	0	1	0	220.002	-1.24127	-1.24111	-0.00742153	7	-0.00046571	41	19.5487	11.696	9.21097e-06	167232
2	0	0	1	0	220.614	-1.27187	-1.2717	-0.00862412	7	-0.00047089	41	19.5487	12.308	1.09673e-05	147458
2	0	0	1	0	221.226	-1.30247	-1.30228	-0.0097341	7	-0.000476799	41	19.5487	12.92	1.26765e-05	133785
2	0	0	1	0	221.838	-1.33307	-1.33288	-0.0108953	7	-0.000483418	41	19.5487	13.532	1.45221e-05	122336
2	0	0	1	0	222.45	-1.36367	-1.3635	-0.0123156	7	-0.000490842	41	19.5487	14.144	1.67923e-05	110713
2	0	0	1	1	222.952	-1.35107	-1.35088	-0.00819662	7	-0.000495998	41	19.5487	14.646	1.10726e-05	164809
2	0	0	1	1	223.564	-1.32047	-1.32026	-0.00510624	7	-0.000499654	41	19.5487	15.258	6.74154e-06	258557
2	0	0	1	1	224.176	-1.28987	-1.28967	-0.0032077	7	-0.000501866	41	19.5487	15.87	4.13685e-06	402054
2	0	0	1	1	224.788	-1.25927	-1.25909	-0.00182962	7	-0.000503112	41	19.5487	16.482	2.30366e-06	688173
2	0	0	1	1	225.4	-1.22867	-1.22848	-0.000710422	7	-0.000503613	41	19.5487	17.094	8.72742e-07	1.72923e+06
2	1	0	1	1	226.012	-1.19807	-1.19789	0.000214444	7	-0.000503514	41	19.5487	0.34	-2.56881e-07	5.58603e+06
2	1	0	1	1	226.624	-1.16747	-1.1673	0.000822508	7	-0.000502947	41	19.5487	0.952	-9.60111e-07	1.41919e+06
2	1	0	1	1	227.236	-1.13687	-1.1367	0.0012788	7	-0.000502045	41	19.5487	1.564	-1.4536e-06	888879
2	1	0	1	1	227.848	-1.10627	-1.10611	0.00161471	7	-0.000500905	41	19.5487	2.176	-1.78604e-06	685020
2	1	0	1	1	228.46	-1.07567	-1.0755	0.00186624	7	-0.0004996	41	19.5487	2.788	-2.00715e-06	576293
2	1	0	1	1	229.072	-1.04507	-1.04493	0.00204768	7	-0.000498181	41	19.5487	3.4	-2.13968e-06	510298
2	1	0	1	1	229.684	-1.01447	-1.0143	0.00217539	7	-0.000496686	41	19.5487	4.012	-2.20649e-06	466261
2	1	0	1	1	230.296	-0.983869	-0.983699	0.00226514	7	-0.00049514	41	19.5487	4.624	-2.22821e-06	434278
2	1	0	1	1	230.908	-0.953269	-0.953068	0.00228517	7	-0.000493563	41	19.5487	5.236	-2.17792e-06	417067
2	1	0	1	1	231.52	-0.922669	-0.922494	0.00230937	7	-0.000491969	41	19.5487	5.848	-2.13038e-06	399457
2	1	0	1	1	232.132	-0.892069	-0.891891	0.00231828	7	-0.000490374	41	19.5487	6.46	-2.06765e-06	384722
2	1	0	1	1	232.744	-0.861469	-0.861303	0.00231141	7	-0.00048879	41	19.5487	7.072	-1.99082e-06	372632
2	1	0	1	1	233.356	-0.830869	-0.830684	0.00227387	7	-0.000487228	41	19.5487	7.684	-1.88887e-06	365317
2	1	0	1	1	233.954	-0.800949	-0.800754	0.00226463	7	-0.000485728	41	19.5487	8.2824	-1.81341e-06	353592
2	1	0	1	1	234.491	-0.774089	-0.773897	0.00219646	8	-0.000484405	41	19.5487	8.8196	-1.69983e-06	352339
2	1	0	1	1	235.103	-0.743489	-0.743307	0.00214927	8	-0.000482928	41	19.5487	9.4316	-1.59757e-06	345841
2	1	0	1	1	235.715	-0.712889	-0.712688	0.00210046	8	-0.000481483	41	19.5487	10.0436	-1.49697e-06	339301
2	1	0	1	1	236.327	-0.682289	-0.682105	0.00206976	8	-0.000480072	41	19.5487	10.6556	-1.41179e-06	329558
2	1	0	1	1	236.939	-0.651689	-0.651503	0.0020124	8	-0.000478695	41	19.5487	11.2676	-1.31108e-06	323745
2	1	0	1	1	237.551	-0.621089	-0.620897	0.00194875	8	-0.000477349	41	19.5487	11.8796	-1.20997e-06	318612
2	1	0	1	1	238.014	-0.602362	-0.602171	0.00150491	8	-0.000476382	41	19.5487	12.3424	-9.06214e-07	400137
2	1	0	1	1	238.626	-0.632962	-0.632743	0.000496287	8	-0.000475995	41	19.5487	12.9544	-3.14022e-07	1.27496e+06
2	1	0	1	1	239.238	-0.663562	-0.663391	0.000134185	8	-0.000475947	41	19.5487	0.136	-8.90171e-08	4.94385e+06
2	0	0	1	1	239.85	-0.694162	-0.694003	-0.000135233	8	-0.000476095	41	19.5487	0.748	9.3852e-08	5.1319e+06
2	0	0	1	1	240.462	-0.724762	-0.72458	-0.000373985	8	-0.000476396	41	19.5487	1.36	2.70982e-07	1.93746e+06
2	0	0	1	1	241.074	-0.755362	-0.755197	-0.000582264	8	-0.000476831	41	19.5487	1.972	4.39724e-07	1.297e+06
2	0	0	1	1	241.686	-0.785962	-0.785763	-0.000777845	8	-0.000477389	41	19.5487	2.584	6.11201e-07	1.01018e+06
2	0	0	1	1	242.298	-0.816562	-0.816403	-0.000982583	8	-0.000478069	41	19.5487	3.196	8.02184e-07	830875
2	0	0	1	1	242.91	-0.847162	-0.846989	-0.00114718	8	-0.000478873	41	19.5487	3.808	9.71648e-07	738323
2	0	0	1	1	243.522	-0.877762	-0.877585	-0.00136309	8	-0.000479809	41	19.5487	4.42	1.19623e-06	643819
2	0	0	1	1	244.134	-0.908362	-0.90817	-0.00160264	8	-0.000480885	41	19.5487	5.032	1.45547e-06	566670
2	0	0	1	1	244.746	-0.938962	-0.938789	-0.00184923	8	-0.000482113	41	19.5487	5.644	1.73604e-06	507666
2	0	0	1	1	245.358	-0.969562	-0.969363	-0.00210578	8	-0.000483504	41	19.5487	6.256	2.04127e-06	460333
2	0	0	1	1	245.97	-1.00016	-0.999969	-0.00240978	8	-0.000485068	41	19.5487	6.868	2.40971e-06	414963
2	0	0	1	1	246.582	-1.03076	-1.03059	-0.00269821	8	-0.000486815	41	19.5487	7.48	2.78075e-06	381954
2	0	0	1	1	247.194	-1.06136	-1.06115	-0.00299317	8	-0.000488765	41	19.5487	8.092	3.17621e-06	354524
2	0	0	1	1	247.806	-1.09196	-1.09179	-0.00342448	8	-0.000490958	41	19.5487	8.704	3.73882e-06	318820
2	0	0	1	1	248.418	-1.12256	-1.12239	-0.00397413	8	-0.000493455	41	19.5487	9.316	4.46052e-06	282425
2	0	0	1	1	249.03	-1.15316	-1.15298	-0.00465381	8	-0.000496335	41	19.5487	9.928	5.36577e-06	247751
2	0	0	1	1	249.642	-1.18376	-1.18358	-0.00538562	8	-0.000499652	41	19.5487	10.54	6.3743e-06	219767
2	0	0	1	1	250.254	-1.21436	-1.21417	-0.00627633	8	-0.000503457	41	19.5487	11.152	7.62055e-06	193452
2	0	0	1	1	250.866	-1.24496	-1.24478	-0.00745493	8	-0.0005079	41	19.5487	11.764	9.27972e-06	166974
2	0	0	1	1	251.478	-1.27556	-1.27541	-0.00868916	8	-0.000513101	41	19.5487	12.376	1.10822e-05	146781
2	0	0	1	1	252.09	-1.30616	-1.30597	-0.0097602	8	-0.00051903	41	19.5487	12.988	1.27466e-05	133806
2	0	0	1	1	252.702	-1.33676	-1.33658	-0.0109192	8	-0.000525664	41	19.5487	13.6	1.45944e-05	122406
2	0	0	1	1	253.314	-1.36736	-1.3672	-0.0123665	8	-0.000533111	41	19.5487	14.212	1.69075e-05	110556
2	0	0	1	0	253.816	-1.34735	-1.34716	-0.00754142	8	-0.000537765	41	19.5487	14.7136	1.01595e-05	178635
2	0	0	1	0	254.428	-1.31675	-1.31655	-0.00468336	8	-0.000541101	41	19.5487	15.3256	6.16588e-06	281113
2	0	0	1	0	255.04	-1.28615	-1.28596	-0.00288547	8	-0.000543083	41	19.5487	15.9376	3.71059e-06	445666
2	0	0	1	0	255.652	-1.25555	-1.25535	-0.00155544	8	-0.000544143	41	19.5487	16.5496	1.95262e-06	807076
2	0	0	1	0	256.264	-1.22495	-1.22475	-0.000482144	8	-0.000544483	41	19.5487	17.1616	5.90507e-07	2.54022e+06
2	1	0	1	0	256.876	-1.19435	-1.19416	0.000381839	8	-0.000544244	41	19.5487	0.476	-4.55978e-07	3.12741e+06
2	1	0	1	0	257.488	-1.16375	-1.16358	0.0010263	8	-0.000543564	41	19.5487	1.088	-1.19417e-06	1.13376e+06
2	1	0	1	0	258.1	-1.13315	-1.13296	0.00144874	8	-0.000542569	41	19.5487	1.7	-1.64137e-06	782029
2	1	0	1	0	258.712	-1.10255	-1.10238	0.00172727	8	-0.000541356	41	19.5487	2.312	-1.90411e-06	638224
2	1	0	1	0	259.324	-1.07195	-1.07181	0.00195172	8	-0.000539989	41	19.5487	2.924	-2.09187e-06	549160
2	1	0	1	0	259.936	-1.04135	-1.0412	0.002104	8	-0.000538519	41	19.5487	3.536	-2.19068e-06	494865
2	1	0	1	0	260.548	-1.01075	-1.01056	0.002226	8	-0.00053698	41	19.5487	4.148	-2.24952e-06	453981
2	1	0	1	0	261.16	-0.980149	-0.979948	0.0023076	8	-0.000535399	41	19.5487	4.76	-2.26132e-06	424662
2	1	0	1	0	261.772	-0.949549	-0.94937	0.00235796	8	-0.000533794	41	19.5487	5.372	-2.23857e-06	402624
2	1	0	1	0	262.384	-0.918949	-0.918764	0.00235475	8	-0.000532179	41	19.5487	5.984	-2.16346e-06	390175
2	1	0	1	0	262.996	-0.888349	-0.88814	0.00234301	8	-0.000530565	41	19.5487	6.596	-2.08092e-06	379059
2	1	0	1	0	263.608	-0.857749	-0.857565	0.00231969	8	-0.000528967	41	19.5487	7.208	-1.98929e-06	369689
2	1	0	1	0	264.22	-0.827149	-0.82695	0.00229016	8	-0.000527394	41	19.5487	7.82	-1.89385e-06	361088
2	1	0	1	0	264.767	-0.799779	-0.799579	0.00234926	9	-0.000526012	41	19.5487	8.3674	-1.87842e-06	340354
2	1	0	1	0	265.348	-0.770709	-0.770518	0.00220013	9	-0.000524573	41	19.5487	8.9488	-1.69524e-06	350216
2	1	0	1	0	265.96	-0.740109	-0.73993	0.00215233	9	-0.000523089	41	19.5487	9.5608	-1.59257e-06	343781
2	1	0	1	0	266.572	-0.709509	-0.709304	0.00211134	9	-0.000521638	41	19.5487	10.1728	-1.49758e-06	335950
2	1	0	1	0	267.184	-0.678909	-0.678723	0.0020623	9	-0.000520222	41	19.5487	10.7848	-1.39973e-06	329110
2	1	0	1	0	267.796	-0.648309	-0.648113	0.00203594	9	-0.00051884	41	19.5487	11.3968	-1.31952e-06	318336
2	1	0	1	0	268.408	-0.617709	-0.617517	0.001968	9	-0.000517489	41	19.5487	12.0088	-1.21528e-06	313778
2	1	0	1	0	268.935	-0.608602	-0.6084	0.00109456	9	-0.000516522	41	19.5487	12.5352	-6.65929e-07	555840
2	1	0	1	0	269.547	-0.639202	-0.638991	0.000410557	9	-0.000516235	41	19.5487	13.1472	-2.62342e-07	1.5564e+06
2	1	0	1	0	270.186	-0.671162	-0.671	6.4018e-05	9	-0.000516232	42	19.5487	0.204	-4.29561e-08	1.04814e+07
2	0	0	1	0	270.798	-0.701762	-0.701618	-0.000195091	9	-0.000516414	42	19.5487	0.816	1.36879e-07	3.59637e+06
2	0	0	1	0	271.41	-0.732362	-0.73224	-0.000415559	9	-0.000516743	42	19.5487	1.428	3.04289e-07	1.76206e+06
2	0	0	1	0	272.022	-0.762962	-0.762842	-0.000620974	9	-0.000517201	42	19.5487	2.04	4.73705e-07	1.22846e+06
2	0	0	1	0	272.634	-0.793562	-0.793443	-0.000804945	9	-0.000517781	42	19.5487	2.652	6.38678e-07	985712
2	0	0	1	0	273.246	-0.824162	-0.824039	-0.000968873	9	-0.000518483	42	19.5487	3.264	7.98389e-07	850512
2	0	0	1	0	273.858	-0.854762	-0.854632	-0.00115986	9	-0.000519311	42	19.5487	3.876	9.91249e-07	736844
2	0	0	1	0	274.47	-0.885362	-0.885221	-0.00136442	9	-0.000520269	42	19.5487	4.488	1.20781e-06	648788
2	0	0	1	0	275.082	-0.915962	-0.915817	-0.00157968	9	-0.000521369	42	19.5487	5.1	1.4467e-06	579747
2	0	0	1	0	275.694	-0.946562	-0.946411	-0.00181564	9	-0.00052262	42	19.5487	5.712	1.71834e-06	521255
2	0	0	1	0	276.34	-0.978862	-0.978639	-0.0021723	9	-0.000524114	41	19.5487	6.358	2.1259e-06	450507
2	0	0	1	0	276.952	-1.00946	-1.00928	-0.00245707	9	-0.000525712	41	19.5487	6.97	2.47986e-06	410765
2	0	0	1	0	277.564	-1.04006	-1.0399	-0.00272024	9	-0.000527493	41	19.5487	7.582	2.82878e-06	382281
2	0	0	0	0	278.176	-1.07065	-1.07047	-0.00307048	9	-0.000529486	41	19.5487	8.1938	3.28686e-06	348633
2	0	0	0	0	278.788	-1.10125	-1.10108	-0.00351675	9	-0.000531732	41	19.5487	8.8058	3.87223e-06	313097
2	0	0	0	0	279.4	-1.13185	-1.13167	-0.00411369	9	-0.000534301	41	19.5487	9.4178	4.65533e-06	275097
2	0	0	0	0	280.012	-1.16245	-1.16227	-0.00480169	9	-0.00053727	41	19.5487	10.0298	5.58088e-06	242055
2	0	0	0	0	280.624	-1.19305	-1.19287	-0.00555767	9	-0.000540681	41	19.5487	10.6418	6.62956e-06	214634
2	0	0	0	0	281.236	-1.22365	-1.22347	-0.00655048	9	-0.000544614	41	19.5487	11.2538	8.01434e-06	186776
2	0	0	0	0	281.848	-1.25425	-1.25408	-0.00774947	9	-0.000549235	41	19.5487	11.8658	9.71843e-06	161827
2	0	0	0	0	282.46	-1.28485	-1.28467	-0.00890121	9	-0.000554622	41	19.5487	12.4778	1.14351e-05	144325
2	0	0	0	0	283.072	-1.31545	-1.31526	-0.0100128	9	-0.000560722	41	19.5487	13.0898	1.31695e-05	131358
2	0	0	0	0	283.684	-1.34605	-1.34585	-0.0112203	9	-0.000567534	41	19.5487	13.7018	1.51009e-05	119948
2	0	0	1	1	284.199	-1.36808	-1.36791	-0.0114455	9	-0.000573853	41	19.5487	14.2172	1.56564e-05	119514
2	0	0	1	1	284.811	-1.33748	-1.33728	-0.00630518	9	-0.000578638	41	19.5487	14.8292	8.43177e-06	212092
2	0	0	1	1	285.423	-1.30688	-1.30667	-0.00392352	9	-0.000581405	41	19.5487	15.4412	5.12677e-06	333036
2	0	0	1	1	286.035	-1.27628	-1.27611	-0.00231761	9	-0.000583008	41	19.5487	16.0532	2.95752e-06	550612
2	0	0	1	1	286.647	-1.24568	-1.2455	-0.00107604	9	-0.000583774	41	19.5487	16.6652	1.34021e-06	1.15749e+06
2	0	0	1	1	287.259	-1.21508	-1.2149	-8.21119e-05	9	-0.00058387	41	19.5487	0.136	9.97578e-08	1.47957e+07
2	1	0	1	1	287.871	-1.18448	-1.1843	0.000644008	9	-0.000583433	41	19.5487	0.748	-7.627e-07	1.83895e+06
2	1	0	1	1	288.483	-1.15388	-1.15371	0.00118862	9	-0.000582599	41	19.5487	1.36	-1.37132e-06	970632
2	1	0	1	1	289.095	-1.12328	-1.12308	0.00158924	9	-0.000581489	41	19.5487	1.972	-1.78484e-06	706674
2	1	0	1	1	289.707	-1.09268	-1.09252	0.00186468	9	-0.000580188	41	19.5487	2.584	-2.0372e-06	585901
2	1	0	1	1	290.319	-1.06208	-1.06189	0.00206773	9	-0.000578757	41	19.5487	3.196	-2.1957e-06	513552
2	1	0	1	1	290.931	-1.03148	-1.03131	0.00219514	9	-0.000577239	41	19.5487	3.808	-2.26388e-06	469815
2	1	0	1	1	291.543	-1.00088	-1.00071	0.00230629	9	-0.000575666	41	19.5487	4.42	-2.30793e-06	433906
2	1	0	1	1	292.155	-0.970279	-0.970087	0.00232715	9	-0.000574057	41	19.5487	5.032	-2.25754e-06	416855
2	1	0	1	1	292.767	-0.939679	-0.939512	0.00236273	9	-0.00057243	41	19.5487	5.644	-2.21982e-06	397638
2	1	0	1	1	293.379	-0.909079	-0.908916	0.00237547	9	-0.0005708	41	19.5487	6.256	-2.15911e-06	382625
2	1	0	1	1	293.991	-0.878479	-0.878298	0.00236161	9	-0.00056918	41	19.5487	6.868	-2.0742e-06	371907
2	1	0	1	1	294.603	-0.847879	-0.847699	0.00234467	9	-0.00056758	41	19.5487	7.48	-1.98757e-06	361544
2	1	0	1	1	295.215	-0.817279	-0.817103	0.00230295	9	-0.000566008	41	19.5487	8.092	-1.88175e-06	354807
2	1	0	1	1	295.739	-0.791099	-0.790925	0.00224713	10	-0.000564687	41	19.5487	8.6156	-1.77731e-06	351971
2	1	0	1	1	296.351	-0.760499	-0.760327	0.00220578	10	-0.000563174	41	19.5487	9.2276	-1.67712e-06	344698
2	1	0	1	1	296.963	-0.729899	-0.729743	0.00215742	10	-0.000561695	41	19.5487	9.8396	-1.57436e-06	338248
2	1	0	1	1	297.575	-0.699299	-0.699129	0.00212391	10	-0.000560252	41	19.5487	10.4516	-1.48489e-06	329170
2	1	0	1	1	298.187	-0.668699	-0.668509	0.00204781	10	-0.000558841	41	19.5487	11.0636	-1.36898e-06	326450
2	1	0	1	1	298.799	-0.638099	-0.637891	0.00200949	10	-0.000557463	41	19.5487	11.6756	-1.28183e-06	317439
2	1	0	1	1	299.411	-0.607499	-0.607314	0.00195368	10	-0.000556116	41	19.5487	12.2876	-1.1865e-06	310856
2	1	0	0	1	299.937	-0.618802	-0.618609	0.000776798	10	-0.000555448	41	19.5487	12.814	-4.80534e-07	796357
2	1	0	0	1	300.549	-0.649402	-0.649257	0.000309924	10	-0.000555271	42	19.5487	13.426	-2.0122e-07	2.09489e+06
2	1	0	0	1	300.559	-0.649911	-0.649735	0.000207108	10	-0.00055527	42	19.5487	13.4362	-1.34565e-07	3.13718e+06